Subject	Age	Handedness	ResearcherID	SessionTime	Sex	Block	CorrectLeft	CorrectRight	Stimulus.CRESP	Stimulus.RESP	Stimulus.ACC	Stimulus.RT	Stimulus8
1	22	right	Other	15:23:43	female	1	1	5	5	5	1	2155	cheveux
1	22	right	Other	15:23:43	female	2	5	1	1	1	1	1226	soumon
1	22	right	Other	15:23:43	female	3	1	5	5	5	1	1485	cloche
1	22	right	Other	15:23:43	female	4	1	5	5	5	1	1560	fascine
1	22	right	Other	15:23:43	female	5	5	1	1	1	1	851	huif
1	22	right	Other	15:23:43	female	6	1	5	5	5	1	1230	semonce
1	22	right	Other	15:23:43	female	7	1	5	5	1	0	1189	canoter 
1	22	right	Other	15:23:43	female	8	1	5	5	5	1	744	infâme
1	22	right	Other	15:23:43	female	9	1	5	5	5	1	1145	fourmi
1	22	right	Other	15:23:43	female	10	1	5	5	1	0	1065	cadenas
1	22	right	Other	15:23:43	female	11	1	5	5	5	1	1679	racaille
1	22	right	Other	15:23:43	female	12	5	1	1	5	0	886	pourcine
1	22	right	Other	15:23:43	female	13	1	5	5	5	1	1866	œillet
1	22	right	Other	15:23:43	female	14	5	1	1	1	1	815	raplaner
1	22	right	Other	15:23:43	female	15	5	1	1	5	0	701	plaiser
1	22	right	Other	15:23:43	female	16	5	1	1	5	0	1209	cerveler
1	22	right	Other	15:23:43	female	17	5	1	1	5	0	993	endifier
1	22	right	Other	15:23:43	female	18	5	1	1	5	0	1479	jamain
1	22	right	Other	15:23:43	female	19	1	5	5	1	0	1179	ennemi
1	22	right	Other	15:23:43	female	20	1	5	5	5	1	729	pouce
1	22	right	Other	15:23:43	female	21	5	1	1	1	1	730	metter
1	22	right	Other	15:23:43	female	22	1	5	5	1	0	1350	fosse
1	22	right	Other	15:23:43	female	23	1	5	5	5	1	677	inciter
1	22	right	Other	15:23:43	female	24	1	5	5	5	1	701	salière
1	22	right	Other	15:23:43	female	25	1	5	5	5	1	707	fouet
1	22	right	Other	15:23:43	female	26	5	1	1	5	0	1011	cessure
1	22	right	Other	15:23:43	female	27	1	5	5	1	0	782	clouer
1	22	right	Other	15:23:43	female	28	1	5	5	1	0	1015	mappemonde
1	22	right	Other	15:23:43	female	29	5	1	1	5	0	1292	gloque
1	22	right	Other	15:23:43	female	30	1	5	5	5	1	744	lézard
1	22	right	Other	15:23:43	female	31	5	1	1	5	0	1422	sacher
1	22	right	Other	15:23:43	female	32	1	5	5	5	1	721	nouer
1	22	right	Other	15:23:43	female	33	1	5	5	5	1	1591	occire
1	22	right	Other	15:23:43	female	34	5	1	1	5	0	811	écouce
1	22	right	Other	15:23:43	female	35	5	1	1	1	1	951	osseaux
1	22	right	Other	15:23:43	female	36	5	1	1	1	1	1119	rejoute
1	22	right	Other	15:23:43	female	37	1	5	5	1	0	887	escroc
1	22	right	Other	15:23:43	female	38	1	5	5	5	1	1377	hache
1	22	right	Other	15:23:43	female	39	5	1	1	5	0	1498	parchance
1	22	right	Other	15:23:43	female	40	1	5	5	1	0	745	pinceau
1	22	right	Other	15:23:43	female	41	1	5	5	5	1	589	poisson
1	22	right	Other	15:23:43	female	42	1	5	5	1	0	842	robinet
1	22	right	Other	15:23:43	female	43	1	5	5	5	1	2548	amadouer
1	22	right	Other	15:23:43	female	44	1	5	5	1	0	822	peigne
1	22	right	Other	15:23:43	female	45	5	1	1	1	1	1864	retruire
1	22	right	Other	15:23:43	female	46	1	5	5	1	0	1053	crayon
1	22	right	Other	15:23:43	female	47	5	1	1	5	0	1546	sentuelle
1	22	right	Other	15:23:43	female	48	1	5	5	5	1	1170	alourdir
1	22	right	Other	15:23:43	female	49	1	5	5	1	0	1320	marteau
1	22	right	Other	15:23:43	female	50	1	5	5	1	0	987	esquif
1	22	right	Other	15:23:43	female	51	1	5	5	5	1	966	treillage
1	22	right	Other	15:23:43	female	52	1	5	5	1	0	2380	dauphin
1	22	right	Other	15:23:43	female	53	1	5	5	5	1	1168	orgueil
1	22	right	Other	15:23:43	female	54	1	5	5	5	1	2115	amorce
1	22	right	Other	15:23:43	female	55	1	5	5	5	1	1054	cintre
1	22	right	Other	15:23:43	female	56	1	5	5	1	0	2530	chameau
1	22	right	Other	15:23:43	female	57	1	5	5	5	1	914	bouton
1	22	right	Other	15:23:43	female	58	1	5	5	1	0	833	capeline
1	22	right	Other	15:23:43	female	59	1	5	5	5	1	965	lanière
1	22	right	Other	15:23:43	female	60	5	1	1	1	1	1221	honteur
1	22	right	Other	15:23:43	female	61	1	5	5	5	1	920	abêtir
1	22	right	Other	15:23:43	female	62	1	5	5	5	1	1332	fenêtre
1	22	right	Other	15:23:43	female	63	1	5	5	5	1	1670	écureuil 
1	22	right	Other	15:23:43	female	64	1	5	5	1	0	551	caddie
1	22	right	Other	15:23:43	female	65	5	1	1	5	0	848	détume
1	22	right	Other	15:23:43	female	66	5	1	1	5	0	1687	oeuiller
1	22	right	Other	15:23:43	female	67	1	5	5	1	0	569	balai
1	22	right	Other	15:23:43	female	68	5	1	1	5	0	1199	prioche
1	22	right	Other	15:23:43	female	69	1	5	5	1	0	1456	vicelard
1	22	right	Other	15:23:43	female	70	5	1	1	5	0	573	joueux
1	22	right	Other	15:23:43	female	71	5	1	1	5	0	970	agire
1	22	right	Other	15:23:43	female	72	1	5	5	5	1	1268	éventail
1	22	right	Other	15:23:43	female	73	5	1	1	5	0	701	boutard
1	22	right	Other	15:23:43	female	74	1	5	5	1	0	656	panier
1	22	right	Other	15:23:43	female	75	1	5	5	1	0	2431	citrouille
1	22	right	Other	15:23:43	female	76	1	5	5	5	1	870	bouilloire
1	22	right	Other	15:23:43	female	77	5	1	1	5	0	1021	parir
1	22	right	Other	15:23:43	female	78	1	5	5	1	0	1561	remporter
1	22	right	Other	15:23:43	female	79	5	1	1	5	0	1835	procoreux
1	22	right	Other	15:23:43	female	80	1	5	5	1	0	1466	tanin
1	22	right	Other	15:23:43	female	81	1	5	5	5	1	2954	église
1	22	right	Other	15:23:43	female	82	1	5	5	5	1	1392	indicible
1	22	right	Other	15:23:43	female	83	5	1	1	5	0	1902	réporce
1	22	right	Other	15:23:43	female	84	1	5	5	5	1	1427	mignon
10	19	left	Other	11:16:40	female	1	1	5	1	5	0	2799	cheveux
10	19	left	Other	11:16:40	female	2	5	1	5	5	1	970	soumon
10	19	left	Other	11:16:40	female	3	1	5	1	5	0	1066	cloche
10	19	left	Other	11:16:40	female	4	1	5	1	1	1	1122	fascine
10	19	left	Other	11:16:40	female	5	5	1	5	5	1	966	huif
10	19	left	Other	11:16:40	female	6	1	5	1	1	1	721	semonce
10	19	left	Other	11:16:40	female	7	1	5	1	5	0	748	canoter 
10	19	left	Other	11:16:40	female	8	1	5	1	1	1	1310	infâme
10	19	left	Other	11:16:40	female	9	1	5	1	1	1	939	fourmi
10	19	left	Other	11:16:40	female	10	1	5	1	5	0	678	cadenas
10	19	left	Other	11:16:40	female	11	1	5	1	1	1	1478	racaille
10	19	left	Other	11:16:40	female	12	5	1	5	1	0	1420	pourcine
10	19	left	Other	11:16:40	female	13	1	5	1	5	0	840	œillet
10	19	left	Other	11:16:40	female	14	5	1	5	5	1	772	raplaner
10	19	left	Other	11:16:40	female	15	5	1	5	1	0	576	plaiser
10	19	left	Other	11:16:40	female	16	5	1	5	1	0	861	cerveler
10	19	left	Other	11:16:40	female	17	5	1	5	5	1	824	endifier
10	19	left	Other	11:16:40	female	18	5	1	5	1	0	1033	jamain
10	19	left	Other	11:16:40	female	19	1	5	1	5	0	1522	ennemi
10	19	left	Other	11:16:40	female	20	1	5	1	1	1	643	pouce
10	19	left	Other	11:16:40	female	21	5	1	5	1	0	718	metter
10	19	left	Other	11:16:40	female	22	1	5	1	1	1	911	fosse
10	19	left	Other	11:16:40	female	23	1	5	1	1	1	1173	inciter
10	19	left	Other	11:16:40	female	24	1	5	1	1	1	1043	salière
10	19	left	Other	11:16:40	female	25	1	5	1	1	1	751	fouet
10	19	left	Other	11:16:40	female	26	5	1	5	1	0	761	cessure
10	19	left	Other	11:16:40	female	27	1	5	1	1	1	707	clouer
10	19	left	Other	11:16:40	female	28	1	5	1	5	0	791	mappemonde
10	19	left	Other	11:16:40	female	29	5	1	5	5	1	900	gloque
10	19	left	Other	11:16:40	female	30	1	5	1	1	1	729	lézard
10	19	left	Other	11:16:40	female	31	5	1	5	1	0	1056	sacher
10	19	left	Other	11:16:40	female	32	1	5	1	1	1	575	nouer
10	19	left	Other	11:16:40	female	33	1	5	1	5	0	648	occire
10	19	left	Other	11:16:40	female	34	5	1	5	1	0	1268	écouce
10	19	left	Other	11:16:40	female	35	5	1	5	5	1	1381	osseaux
10	19	left	Other	11:16:40	female	36	5	1	5	5	1	1078	rejoute
10	19	left	Other	11:16:40	female	37	1	5	1	5	0	862	escroc
10	19	left	Other	11:16:40	female	38	1	5	1	5	0	862	hache
10	19	left	Other	11:16:40	female	39	5	1	5	5	1	929	parchance
10	19	left	Other	11:16:40	female	40	1	5	1	5	0	822	pinceau
10	19	left	Other	11:16:40	female	41	1	5	1	1	1	684	poisson
10	19	left	Other	11:16:40	female	42	1	5	1	5	0	876	robinet
10	19	left	Other	11:16:40	female	43	1	5	1	5	0	1520	amadouer
10	19	left	Other	11:16:40	female	44	1	5	1	1	1	1123	peigne
10	19	left	Other	11:16:40	female	45	5	1	5	1	0	1208	retruire
10	19	left	Other	11:16:40	female	46	1	5	1	1	1	643	crayon
10	19	left	Other	11:16:40	female	47	5	1	5	1	0	785	sentuelle
10	19	left	Other	11:16:40	female	48	1	5	1	5	0	773	alourdir
10	19	left	Other	11:16:40	female	49	1	5	1	1	1	666	marteau
10	19	left	Other	11:16:40	female	50	1	5	1	5	0	854	esquif
10	19	left	Other	11:16:40	female	51	1	5	1	5	0	727	treillage
10	19	left	Other	11:16:40	female	52	1	5	1	5	0	680	dauphin
10	19	left	Other	11:16:40	female	53	1	5	1	1	1	1252	orgueil
10	19	left	Other	11:16:40	female	54	1	5	1	1	1	815	amorce
10	19	left	Other	11:16:40	female	55	1	5	1	1	1	665	cintre
10	19	left	Other	11:16:40	female	56	1	5	1	1	1	666	chameau
10	19	left	Other	11:16:40	female	57	1	5	1	1	1	695	bouton
10	19	left	Other	11:16:40	female	58	1	5	1	5	0	787	capeline
10	19	left	Other	11:16:40	female	59	1	5	1	1	1	798	lanière
10	19	left	Other	11:16:40	female	60	5	1	5	5	1	633	honteur
10	19	left	Other	11:16:40	female	61	1	5	1	5	0	684	abêtir
10	19	left	Other	11:16:40	female	62	1	5	1	1	1	667	fenêtre
10	19	left	Other	11:16:40	female	63	1	5	1	5	0	823	écureuil 
10	19	left	Other	11:16:40	female	64	1	5	1	5	0	808	caddie
10	19	left	Other	11:16:40	female	65	5	1	5	5	1	898	détume
10	19	left	Other	11:16:40	female	66	5	1	5	1	0	813	oeuiller
10	19	left	Other	11:16:40	female	67	1	5	1	5	0	792	balai
10	19	left	Other	11:16:40	female	68	5	1	5	5	1	974	prioche
10	19	left	Other	11:16:40	female	69	1	5	1	5	0	962	vicelard
10	19	left	Other	11:16:40	female	70	5	1	5	1	0	810	joueux
10	19	left	Other	11:16:40	female	71	5	1	5	5	1	782	agire
10	19	left	Other	11:16:40	female	72	1	5	1	5	0	815	éventail
10	19	left	Other	11:16:40	female	73	5	1	5	5	1	1332	boutard
10	19	left	Other	11:16:40	female	74	1	5	1	5	0	1051	panier
10	19	left	Other	11:16:40	female	75	1	5	1	5	0	734	citrouille
10	19	left	Other	11:16:40	female	76	1	5	1	5	0	1030	bouilloire
10	19	left	Other	11:16:40	female	77	5	1	5	5	1	852	parir
10	19	left	Other	11:16:40	female	78	1	5	1	1	1	659	remporter
10	19	left	Other	11:16:40	female	79	5	1	5	5	1	826	procoreux
10	19	left	Other	11:16:40	female	80	1	5	1	1	1	1507	tanin
10	19	left	Other	11:16:40	female	81	1	5	1	1	1	787	église
10	19	left	Other	11:16:40	female	82	1	5	1	5	0	1170	indicible
10	19	left	Other	11:16:40	female	83	5	1	5	5	1	942	réporce
10	19	left	Other	11:16:40	female	84	1	5	1	1	1	754	mignon
11	20	right	Other	12:19:36	female	1	1	5	5	5	1	2393	cheveux
11	20	right	Other	12:19:36	female	2	5	1	1	1	1	1410	soumon
11	20	right	Other	12:19:36	female	3	1	5	5	1	0	585	cloche
11	20	right	Other	12:19:36	female	4	1	5	5	1	0	498	fascine
11	20	right	Other	12:19:36	female	5	5	1	1	1	1	449	huif
11	20	right	Other	12:19:36	female	6	1	5	5	1	0	404	semonce
11	20	right	Other	12:19:36	female	7	1	5	5	1	0	510	canoter 
11	20	right	Other	12:19:36	female	8	1	5	5	1	0	374	infâme
11	20	right	Other	12:19:36	female	9	1	5	5	1	0	534	fourmi
11	20	right	Other	12:19:36	female	10	1	5	5	1	0	584	cadenas
11	20	right	Other	12:19:36	female	11	1	5	5	5	1	816	racaille
11	20	right	Other	12:19:36	female	12	5	1	1	1	1	887	pourcine
11	20	right	Other	12:19:36	female	13	1	5	5	1	0	549	œillet
11	20	right	Other	12:19:36	female	14	5	1	1	1	1	461	raplaner
11	20	right	Other	12:19:36	female	15	5	1	1	5	0	584	plaiser
11	20	right	Other	12:19:36	female	16	5	1	1	1	1	488	cerveler
11	20	right	Other	12:19:36	female	17	5	1	1	1	1	470	endifier
11	20	right	Other	12:19:36	female	18	5	1	1	1	1	476	jamain
11	20	right	Other	12:19:36	female	19	1	5	5	1	0	412	ennemi
11	20	right	Other	12:19:36	female	20	1	5	5	1	0	651	pouce
11	20	right	Other	12:19:36	female	21	5	1	1	1	1	427	metter
11	20	right	Other	12:19:36	female	22	1	5	5	1	0	365	fosse
11	20	right	Other	12:19:36	female	23	1	5	5	1	0	599	inciter
11	20	right	Other	12:19:36	female	24	1	5	5	1	0	453	salière
11	20	right	Other	12:19:36	female	25	1	5	5	1	0	780	fouet
11	20	right	Other	12:19:36	female	26	5	1	1	5	0	772	cessure
11	20	right	Other	12:19:36	female	27	1	5	5	1	0	503	clouer
11	20	right	Other	12:19:36	female	28	1	5	5	1	0	532	mappemonde
11	20	right	Other	12:19:36	female	29	5	1	1	1	1	543	gloque
11	20	right	Other	12:19:36	female	30	1	5	5	1	0	1341	lézard
11	20	right	Other	12:19:36	female	31	5	1	1	5	0	711	sacher
11	20	right	Other	12:19:36	female	32	1	5	5	5	1	755	nouer
11	20	right	Other	12:19:36	female	33	1	5	5	1	0	420	occire
11	20	right	Other	12:19:36	female	34	5	1	1	1	1	406	écouce
11	20	right	Other	12:19:36	female	35	5	1	1	1	1	549	osseaux
11	20	right	Other	12:19:36	female	36	5	1	1	1	1	555	rejoute
11	20	right	Other	12:19:36	female	37	1	5	5	1	0	546	escroc
11	20	right	Other	12:19:36	female	38	1	5	5	1	0	389	hache
11	20	right	Other	12:19:36	female	39	5	1	1	1	1	425	parchance
11	20	right	Other	12:19:36	female	40	1	5	5	1	0	303	pinceau
11	20	right	Other	12:19:36	female	41	1	5	5	5	1	488	poisson
11	20	right	Other	12:19:36	female	42	1	5	5	1	0	496	robinet
11	20	right	Other	12:19:36	female	43	1	5	5	1	0	436	amadouer
11	20	right	Other	12:19:36	female	44	1	5	5	1	0	350	peigne
11	20	right	Other	12:19:36	female	45	5	1	1	1	1	457	retruire
11	20	right	Other	12:19:36	female	46	1	5	5	5	1	585	crayon
11	20	right	Other	12:19:36	female	47	5	1	1	1	1	523	sentuelle
11	20	right	Other	12:19:36	female	48	1	5	5	1	0	384	alourdir
11	20	right	Other	12:19:36	female	49	1	5	5	1	0	428	marteau
11	20	right	Other	12:19:36	female	50	1	5	5	1	0	499	esquif
11	20	right	Other	12:19:36	female	51	1	5	5	1	0	370	treillage
11	20	right	Other	12:19:36	female	52	1	5	5	1	0	601	dauphin
11	20	right	Other	12:19:36	female	53	1	5	5	1	0	525	orgueil
11	20	right	Other	12:19:36	female	54	1	5	5	1	0	536	amorce
11	20	right	Other	12:19:36	female	55	1	5	5	1	0	506	cintre
11	20	right	Other	12:19:36	female	56	1	5	5	5	1	547	chameau
11	20	right	Other	12:19:36	female	57	1	5	5	1	0	368	bouton
11	20	right	Other	12:19:36	female	58	1	5	5	1	0	698	capeline
11	20	right	Other	12:19:36	female	59	1	5	5	5	1	476	lanière
11	20	right	Other	12:19:36	female	60	5	1	1	1	1	603	honteur
11	20	right	Other	12:19:36	female	61	1	5	5	5	1	894	abêtir
11	20	right	Other	12:19:36	female	62	1	5	5	5	1	524	fenêtre
11	20	right	Other	12:19:36	female	63	1	5	5	1	0	466	écureuil 
11	20	right	Other	12:19:36	female	64	1	5	5	1	0	567	caddie
11	20	right	Other	12:19:36	female	65	5	1	1	1	1	615	détume
11	20	right	Other	12:19:36	female	66	5	1	1	1	1	717	oeuiller
11	20	right	Other	12:19:36	female	67	1	5	5	1	0	457	balai
11	20	right	Other	12:19:36	female	68	5	1	1	1	1	400	prioche
11	20	right	Other	12:19:36	female	69	1	5	5	1	0	462	vicelard
11	20	right	Other	12:19:36	female	70	5	1	1	1	1	444	joueux
11	20	right	Other	12:19:36	female	71	5	1	1	1	1	777	agire
11	20	right	Other	12:19:36	female	72	1	5	5	1	0	605	éventail
11	20	right	Other	12:19:36	female	73	5	1	1	1	1	410	boutard
11	20	right	Other	12:19:36	female	74	1	5	5	1	0	361	panier
11	20	right	Other	12:19:36	female	75	1	5	5	5	1	689	citrouille
11	20	right	Other	12:19:36	female	76	1	5	5	5	1	587	bouilloire
11	20	right	Other	12:19:36	female	77	5	1	1	1	1	536	parir
11	20	right	Other	12:19:36	female	78	1	5	5	5	1	534	remporter
11	20	right	Other	12:19:36	female	79	5	1	1	1	1	513	procoreux
11	20	right	Other	12:19:36	female	80	1	5	5	1	0	502	tanin
11	20	right	Other	12:19:36	female	81	1	5	5	1	0	340	église
11	20	right	Other	12:19:36	female	82	1	5	5	1	0	828	indicible
11	20	right	Other	12:19:36	female	83	5	1	1	1	1	953	réporce
11	20	right	Other	12:19:36	female	84	1	5	5	5	1	615	mignon
12	20	right	Ferdy	10:53:19	female	1	1	5	5	1	0	2565	cheveux
12	20	right	Ferdy	10:53:19	female	2	5	1	1	1	1	2145	soumon
12	20	right	Ferdy	10:53:19	female	3	1	5	5	5	1	2445	cloche
12	20	right	Ferdy	10:53:19	female	4	1	5	5	1	0	2063	fascine
12	20	right	Ferdy	10:53:19	female	5	5	1	1	1	1	1766	huif
12	20	right	Ferdy	10:53:19	female	6	1	5	5	5	1	1753	semonce
12	20	right	Ferdy	10:53:19	female	7	1	5	5	1	0	2524	canoter 
12	20	right	Ferdy	10:53:19	female	8	1	5	5	1	0	2759	infâme
12	20	right	Ferdy	10:53:19	female	9	1	5	5	5	1	1969	fourmi
12	20	right	Ferdy	10:53:19	female	10	1	5	5	5	1	2503	cadenas
12	20	right	Ferdy	10:53:19	female	11	1	5	5	5	1	1875	racaille
12	20	right	Ferdy	10:53:19	female	12	5	1	1	5	0	1974	pourcine
12	20	right	Ferdy	10:53:19	female	13	1	5	5	1	0	1560	œillet
12	20	right	Ferdy	10:53:19	female	14	5	1	1	1	1	1527	raplaner
12	20	right	Ferdy	10:53:19	female	15	5	1	1	5	0	1294	plaiser
12	20	right	Ferdy	10:53:19	female	16	5	1	1	1	1	2017	cerveler
12	20	right	Ferdy	10:53:19	female	17	5	1	1	1	1	2019	endifier
12	20	right	Ferdy	10:53:19	female	18	5	1	1	5	0	1155	jamain
12	20	right	Ferdy	10:53:19	female	19	1	5	5	1	0	1215	ennemi
12	20	right	Ferdy	10:53:19	female	20	1	5	5	5	1	1515	pouce
12	20	right	Ferdy	10:53:19	female	21	5	1	1	1	1	1017	metter
12	20	right	Ferdy	10:53:19	female	22	1	5	5	1	0	2911	fosse
12	20	right	Ferdy	10:53:19	female	23	1	5	5	5	1	1162	inciter
12	20	right	Ferdy	10:53:19	female	24	1	5	5	5	1	1103	salière
12	20	right	Ferdy	10:53:19	female	25	1	5	5	1	0	1799	fouet
12	20	right	Ferdy	10:53:19	female	26	5	1	1	5	0	1406	cessure
12	20	right	Ferdy	10:53:19	female	27	1	5	5	5	1	1263	clouer
12	20	right	Ferdy	10:53:19	female	28	1	5	5	1	0	1147	mappemonde
12	20	right	Ferdy	10:53:19	female	29	5	1	1	1	1	3160	gloque
12	20	right	Ferdy	10:53:19	female	30	1	5	5	1	0	1916	lézard
12	20	right	Ferdy	10:53:19	female	31	5	1	1	5	0	1247	sacher
12	20	right	Ferdy	10:53:19	female	32	1	5	5	5	1	1221	nouer
12	20	right	Ferdy	10:53:19	female	33	1	5	5	1	0	1712	occire
12	20	right	Ferdy	10:53:19	female	34	5	1	1	5	0	1132	écouce
12	20	right	Ferdy	10:53:19	female	35	5	1	1	1	1	1288	osseaux
12	20	right	Ferdy	10:53:19	female	36	5	1	1	1	1	1621	rejoute
12	20	right	Ferdy	10:53:19	female	37	1	5	5	1	0	1449	escroc
12	20	right	Ferdy	10:53:19	female	38	1	5	5	1	0	1138	hache
12	20	right	Ferdy	10:53:19	female	39	5	1	1	5	0	1130	parchance
12	20	right	Ferdy	10:53:19	female	40	1	5	5	5	1	1674	pinceau
12	20	right	Ferdy	10:53:19	female	41	1	5	5	5	1	1207	poisson
12	20	right	Ferdy	10:53:19	female	42	1	5	5	1	0	1520	robinet
12	20	right	Ferdy	10:53:19	female	43	1	5	5	1	0	1275	amadouer
12	20	right	Ferdy	10:53:19	female	44	1	5	5	1	0	1097	peigne
12	20	right	Ferdy	10:53:19	female	45	5	1	1	5	0	1118	retruire
12	20	right	Ferdy	10:53:19	female	46	1	5	5	5	1	901	crayon
12	20	right	Ferdy	10:53:19	female	47	5	1	1	5	0	1430	sentuelle
12	20	right	Ferdy	10:53:19	female	48	1	5	5	1	0	1138	alourdir
12	20	right	Ferdy	10:53:19	female	49	1	5	5	1	0	1473	marteau
12	20	right	Ferdy	10:53:19	female	50	1	5	5	1	0	1444	esquif
12	20	right	Ferdy	10:53:19	female	51	1	5	5	1	0	1553	treillage
12	20	right	Ferdy	10:53:19	female	52	1	5	5	5	1	1120	dauphin
12	20	right	Ferdy	10:53:19	female	53	1	5	5	5	1	1371	orgueil
12	20	right	Ferdy	10:53:19	female	54	1	5	5	5	1	1294	amorce
12	20	right	Ferdy	10:53:19	female	55	1	5	5	1	0	1745	cintre
12	20	right	Ferdy	10:53:19	female	56	1	5	5	5	1	1172	chameau
12	20	right	Ferdy	10:53:19	female	57	1	5	5	5	1	1124	bouton
12	20	right	Ferdy	10:53:19	female	58	1	5	5	1	0	894	capeline
12	20	right	Ferdy	10:53:19	female	59	1	5	5	5	1	1441	lanière
12	20	right	Ferdy	10:53:19	female	60	5	1	1	5	0	1749	honteur
12	20	right	Ferdy	10:53:19	female	61	1	5	5	1	0	1178	abêtir
12	20	right	Ferdy	10:53:19	female	62	1	5	5	5	1	1342	fenêtre
12	20	right	Ferdy	10:53:19	female	63	1	5	5	5	1	1040	écureuil 
12	20	right	Ferdy	10:53:19	female	64	1	5	5	1	0	834	caddie
12	20	right	Ferdy	10:53:19	female	65	5	1	1	5	0	1169	détume
12	20	right	Ferdy	10:53:19	female	66	5	1	1	1	1	925	oeuiller
12	20	right	Ferdy	10:53:19	female	67	1	5	5	1	0	796	balai
12	20	right	Ferdy	10:53:19	female	68	5	1	1	5	0	1027	prioche
12	20	right	Ferdy	10:53:19	female	69	1	5	5	1	0	1024	vicelard
12	20	right	Ferdy	10:53:19	female	70	5	1	1	5	0	703	joueux
12	20	right	Ferdy	10:53:19	female	71	5	1	1	5	0	839	agire
12	20	right	Ferdy	10:53:19	female	72	1	5	5	1	0	1125	éventail
12	20	right	Ferdy	10:53:19	female	73	5	1	1	5	0	908	boutard
12	20	right	Ferdy	10:53:19	female	74	1	5	5	1	0	1322	panier
12	20	right	Ferdy	10:53:19	female	75	1	5	5	1	0	1888	citrouille
12	20	right	Ferdy	10:53:19	female	76	1	5	5	5	1	901	bouilloire
12	20	right	Ferdy	10:53:19	female	77	5	1	1	1	1	967	parir
12	20	right	Ferdy	10:53:19	female	78	1	5	5	5	1	802	remporter
12	20	right	Ferdy	10:53:19	female	79	5	1	1	5	0	1588	procoreux
12	20	right	Ferdy	10:53:19	female	80	1	5	5	1	0	766	tanin
12	20	right	Ferdy	10:53:19	female	81	1	5	5	5	1	734	église
12	20	right	Ferdy	10:53:19	female	82	1	5	5	5	1	1282	indicible
12	20	right	Ferdy	10:53:19	female	83	5	1	1	5	0	1317	réporce
12	20	right	Ferdy	10:53:19	female	84	1	5	5	1	0	746	mignon
13	21	right	Nadia	9:58:24	male	1	1	5	5	5	1	2481	cheveux
13	21	right	Nadia	9:58:24	male	2	5	1	1	1	1	1731	soumon
13	21	right	Nadia	9:58:24	male	3	1	5	5	5	1	1363	cloche
13	21	right	Nadia	9:58:24	male	4	1	5	5	1	0	2810	fascine
13	21	right	Nadia	9:58:24	male	5	5	1	1	1	1	1283	huif
13	21	right	Nadia	9:58:24	male	6	1	5	5	5	1	996	semonce
13	21	right	Nadia	9:58:24	male	7	1	5	5	5	1	2825	canoter 
13	21	right	Nadia	9:58:24	male	8	1	5	5	5	1	1305	infâme
13	21	right	Nadia	9:58:24	male	9	1	5	5	5	1	5130	fourmi
13	21	right	Nadia	9:58:24	male	10	1	5	5	1	0	1488	cadenas
13	21	right	Nadia	9:58:24	male	11	1	5	5	5	1	1291	racaille
13	21	right	Nadia	9:58:24	male	12	5	1	1	5	0	1937	pourcine
13	21	right	Nadia	9:58:24	male	13	1	5	5	5	1	5740	œillet
13	21	right	Nadia	9:58:24	male	14	5	1	1	1	1	1293	raplaner
13	21	right	Nadia	9:58:24	male	15	5	1	1	5	0	1191	plaiser
13	21	right	Nadia	9:58:24	male	16	5	1	1	1	1	3059	cerveler
13	21	right	Nadia	9:58:24	male	17	5	1	1	5	0	3326	endifier
13	21	right	Nadia	9:58:24	male	18	5	1	1	1	1	3672	jamain
13	21	right	Nadia	9:58:24	male	19	1	5	5	1	0	2110	ennemi
13	21	right	Nadia	9:58:24	male	20	1	5	5	5	1	2915	pouce
13	21	right	Nadia	9:58:24	male	21	5	1	1	1	1	1254	metter
13	21	right	Nadia	9:58:24	male	22	1	5	5	1	0	3180	fosse
13	21	right	Nadia	9:58:24	male	23	1	5	5	5	1	3244	inciter
13	21	right	Nadia	9:58:24	male	24	1	5	5	5	1	4033	salière
13	21	right	Nadia	9:58:24	male	25	1	5	5	5	1	2236	fouet
13	21	right	Nadia	9:58:24	male	26	5	1	1	5	0	2042	cessure
13	21	right	Nadia	9:58:24	male	27	1	5	5	1	0	1772	clouer
13	21	right	Nadia	9:58:24	male	28	1	5	5	5	1	4838	mappemonde
13	21	right	Nadia	9:58:24	male	29	5	1	1	5	0	4860	gloque
13	21	right	Nadia	9:58:24	male	30	1	5	5	5	1	1823	lézard
13	21	right	Nadia	9:58:24	male	31	5	1	1	1	1	1527	sacher
13	21	right	Nadia	9:58:24	male	32	1	5	5	1	0	6946	nouer
13	21	right	Nadia	9:58:24	male	33	1	5	5	5	1	1620	occire
13	21	right	Nadia	9:58:24	male	34	5	1	1	5	0	2464	écouce
13	21	right	Nadia	9:58:24	male	35	5	1	1	1	1	5381	osseaux
13	21	right	Nadia	9:58:24	male	36	5	1	1	5	0	3432	rejoute
13	21	right	Nadia	9:58:24	male	37	1	5	5	1	0	2737	escroc
13	21	right	Nadia	9:58:24	male	38	1	5	5	5	1	1188	hache
13	21	right	Nadia	9:58:24	male	39	5	1	1	5	0	4253	parchance
13	21	right	Nadia	9:58:24	male	40	1	5	5	1	0	5364	pinceau
13	21	right	Nadia	9:58:24	male	41	1	5	5	5	1	1054	poisson
13	21	right	Nadia	9:58:24	male	42	1	5	5	1	0	2794	robinet
13	21	right	Nadia	9:58:24	male	43	1	5	5	1	0	1605	amadouer
13	21	right	Nadia	9:58:24	male	44	1	5	5	5	1	1938	peigne
13	21	right	Nadia	9:58:24	male	45	5	1	1	1	1	1730	retruire
13	21	right	Nadia	9:58:24	male	46	1	5	5	5	1	3027	crayon
13	21	right	Nadia	9:58:24	male	47	5	1	1	5	0	1196	sentuelle
13	21	right	Nadia	9:58:24	male	48	1	5	5	1	0	2574	alourdir
13	21	right	Nadia	9:58:24	male	49	1	5	5	1	0	4189	marteau
13	21	right	Nadia	9:58:24	male	50	1	5	5	1	0	1632	esquif
13	21	right	Nadia	9:58:24	male	51	1	5	5	5	1	1184	treillage
13	21	right	Nadia	9:58:24	male	52	1	5	5	5	1	1592	dauphin
13	21	right	Nadia	9:58:24	male	53	1	5	5	1	0	5585	orgueil
13	21	right	Nadia	9:58:24	male	54	1	5	5	1	0	2127	amorce
13	21	right	Nadia	9:58:24	male	55	1	5	5	5	1	1308	cintre
13	21	right	Nadia	9:58:24	male	56	1	5	5	5	1	2437	chameau
13	21	right	Nadia	9:58:24	male	57	1	5	5	5	1	1744	bouton
13	21	right	Nadia	9:58:24	male	58	1	5	5	5	1	6412	capeline
13	21	right	Nadia	9:58:24	male	59	1	5	5	5	1	1075	lanière
13	21	right	Nadia	9:58:24	male	60	5	1	1	1	1	2695	honteur
13	21	right	Nadia	9:58:24	male	61	1	5	5	1	0	1485	abêtir
13	21	right	Nadia	9:58:24	male	62	1	5	5	5	1	865	fenêtre
13	21	right	Nadia	9:58:24	male	63	1	5	5	1	0	2895	écureuil 
13	21	right	Nadia	9:58:24	male	64	1	5	5	5	1	4710	caddie
13	21	right	Nadia	9:58:24	male	65	5	1	1	5	0	1879	détume
13	21	right	Nadia	9:58:24	male	66	5	1	1	1	1	1988	oeuiller
13	21	right	Nadia	9:58:24	male	67	1	5	5	1	0	3601	balai
13	21	right	Nadia	9:58:24	male	68	5	1	1	1	1	1810	prioche
13	21	right	Nadia	9:58:24	male	69	1	5	5	1	0	3787	vicelard
13	21	right	Nadia	9:58:24	male	70	5	1	1	5	0	1229	joueux
13	21	right	Nadia	9:58:24	male	71	5	1	1	5	0	1535	agire
13	21	right	Nadia	9:58:24	male	72	1	5	5	1	0	3730	éventail
13	21	right	Nadia	9:58:24	male	73	5	1	1	5	0	1916	boutard
13	21	right	Nadia	9:58:24	male	74	1	5	5	1	0	3267	panier
13	21	right	Nadia	9:58:24	male	75	1	5	5	1	0	2081	citrouille
13	21	right	Nadia	9:58:24	male	76	1	5	5	5	1	2695	bouilloire
13	21	right	Nadia	9:58:24	male	77	5	1	1	1	1	2327	parir
13	21	right	Nadia	9:58:24	male	78	1	5	5	1	0	3622	remporter
13	21	right	Nadia	9:58:24	male	79	5	1	1	5	0	3596	procoreux
13	21	right	Nadia	9:58:24	male	80	1	5	5	5	1	1178	tanin
13	21	right	Nadia	9:58:24	male	81	1	5	5	5	1	1091	église
13	21	right	Nadia	9:58:24	male	82	1	5	5	5	1	3998	indicible
13	21	right	Nadia	9:58:24	male	83	5	1	1	5	0	2125	réporce
13	21	right	Nadia	9:58:24	male	84	1	5	5	5	1	3109	mignon
14	19	right	Other	14:51:22	female	1	1	5	5	1	0	1946	cheveux
14	19	right	Other	14:51:22	female	2	5	1	1	1	1	790	soumon
14	19	right	Other	14:51:22	female	3	1	5	5	1	0	1459	cloche
14	19	right	Other	14:51:22	female	4	1	5	5	5	1	1102	fascine
14	19	right	Other	14:51:22	female	5	5	1	1	1	1	651	huif
14	19	right	Other	14:51:22	female	6	1	5	5	1	0	1185	semonce
14	19	right	Other	14:51:22	female	7	1	5	5	1	0	601	canoter 
14	19	right	Other	14:51:22	female	8	1	5	5	1	0	1482	infâme
14	19	right	Other	14:51:22	female	9	1	5	5	1	0	1365	fourmi
14	19	right	Other	14:51:22	female	10	1	5	5	1	0	1319	cadenas
14	19	right	Other	14:51:22	female	11	1	5	5	5	1	1462	racaille
14	19	right	Other	14:51:22	female	12	5	1	1	1	1	815	pourcine
14	19	right	Other	14:51:22	female	13	1	5	5	1	0	1682	œillet
14	19	right	Other	14:51:22	female	14	5	1	1	1	1	1095	raplaner
14	19	right	Other	14:51:22	female	15	5	1	1	5	0	850	plaiser
14	19	right	Other	14:51:22	female	16	5	1	1	1	1	669	cerveler
14	19	right	Other	14:51:22	female	17	5	1	1	5	0	1124	endifier
14	19	right	Other	14:51:22	female	18	5	1	1	5	0	1393	jamain
14	19	right	Other	14:51:22	female	19	1	5	5	1	0	650	ennemi
14	19	right	Other	14:51:22	female	20	1	5	5	5	1	1729	pouce
14	19	right	Other	14:51:22	female	21	5	1	1	1	1	561	metter
14	19	right	Other	14:51:22	female	22	1	5	5	1	0	584	fosse
14	19	right	Other	14:51:22	female	23	1	5	5	1	0	1343	inciter
14	19	right	Other	14:51:22	female	24	1	5	5	1	0	776	salière
14	19	right	Other	14:51:22	female	25	1	5	5	1	0	792	fouet
14	19	right	Other	14:51:22	female	26	5	1	1	1	1	626	cessure
14	19	right	Other	14:51:22	female	27	1	5	5	1	0	652	clouer
14	19	right	Other	14:51:22	female	28	1	5	5	1	0	1369	mappemonde
14	19	right	Other	14:51:22	female	29	5	1	1	1	1	1528	gloque
14	19	right	Other	14:51:22	female	30	1	5	5	5	1	1278	lézard
14	19	right	Other	14:51:22	female	31	5	1	1	1	1	706	sacher
14	19	right	Other	14:51:22	female	32	1	5	5	1	0	1689	nouer
14	19	right	Other	14:51:22	female	33	1	5	5	1	0	476	occire
14	19	right	Other	14:51:22	female	34	5	1	1	1	1	723	écouce
14	19	right	Other	14:51:22	female	35	5	1	1	1	1	1292	osseaux
14	19	right	Other	14:51:22	female	36	5	1	1	1	1	2028	rejoute
14	19	right	Other	14:51:22	female	37	1	5	5	1	0	1039	escroc
14	19	right	Other	14:51:22	female	38	1	5	5	1	0	1326	hache
14	19	right	Other	14:51:22	female	39	5	1	1	1	1	769	parchance
14	19	right	Other	14:51:22	female	40	1	5	5	1	0	766	pinceau
14	19	right	Other	14:51:22	female	41	1	5	5	5	1	856	poisson
14	19	right	Other	14:51:22	female	42	1	5	5	1	0	1032	robinet
14	19	right	Other	14:51:22	female	43	1	5	5	1	0	1603	amadouer
14	19	right	Other	14:51:22	female	44	1	5	5	1	0	1237	peigne
14	19	right	Other	14:51:22	female	45	5	1	1	1	1	886	retruire
14	19	right	Other	14:51:22	female	46	1	5	5	1	0	814	crayon
14	19	right	Other	14:51:22	female	47	5	1	1	1	1	1143	sentuelle
14	19	right	Other	14:51:22	female	48	1	5	5	1	0	622	alourdir
14	19	right	Other	14:51:22	female	49	1	5	5	1	0	1542	marteau
14	19	right	Other	14:51:22	female	50	1	5	5	1	0	968	esquif
14	19	right	Other	14:51:22	female	51	1	5	5	1	0	1322	treillage
14	19	right	Other	14:51:22	female	52	1	5	5	1	0	1539	dauphin
14	19	right	Other	14:51:22	female	53	1	5	5	1	0	799	orgueil
14	19	right	Other	14:51:22	female	54	1	5	5	1	0	1400	amorce
14	19	right	Other	14:51:22	female	55	1	5	5	1	0	824	cintre
14	19	right	Other	14:51:22	female	56	1	5	5	5	1	761	chameau
14	19	right	Other	14:51:22	female	57	1	5	5	1	0	863	bouton
14	19	right	Other	14:51:22	female	58	1	5	5	1	0	750	capeline
14	19	right	Other	14:51:22	female	59	1	5	5	1	0	1382	lanière
14	19	right	Other	14:51:22	female	60	5	1	1	1	1	727	honteur
14	19	right	Other	14:51:22	female	61	1	5	5	5	1	1243	abêtir
14	19	right	Other	14:51:22	female	62	1	5	5	5	1	2439	fenêtre
14	19	right	Other	14:51:22	female	63	1	5	5	1	0	480	écureuil 
14	19	right	Other	14:51:22	female	64	1	5	5	1	0	502	caddie
14	19	right	Other	14:51:22	female	65	5	1	1	1	1	926	détume
14	19	right	Other	14:51:22	female	66	5	1	1	1	1	1250	oeuiller
14	19	right	Other	14:51:22	female	67	1	5	5	1	0	841	balai
14	19	right	Other	14:51:22	female	68	5	1	1	1	1	1915	prioche
14	19	right	Other	14:51:22	female	69	1	5	5	1	0	769	vicelard
14	19	right	Other	14:51:22	female	70	5	1	1	1	1	2437	joueux
14	19	right	Other	14:51:22	female	71	5	1	1	1	1	759	agire
14	19	right	Other	14:51:22	female	72	1	5	5	1	0	659	éventail
14	19	right	Other	14:51:22	female	73	5	1	1	5	0	1274	boutard
14	19	right	Other	14:51:22	female	74	1	5	5	1	0	728	panier
14	19	right	Other	14:51:22	female	75	1	5	5	1	0	1009	citrouille
14	19	right	Other	14:51:22	female	76	1	5	5	1	0	1801	bouilloire
14	19	right	Other	14:51:22	female	77	5	1	1	1	1	1301	parir
14	19	right	Other	14:51:22	female	78	1	5	5	1	0	2030	remporter
14	19	right	Other	14:51:22	female	79	5	1	1	1	1	1407	procoreux
14	19	right	Other	14:51:22	female	80	1	5	5	1	0	1243	tanin
14	19	right	Other	14:51:22	female	81	1	5	5	5	1	921	église
14	19	right	Other	14:51:22	female	82	1	5	5	1	0	991	indicible
14	19	right	Other	14:51:22	female	83	5	1	1	1	1	2238	réporce
14	19	right	Other	14:51:22	female	84	1	5	5	1	0	597	mignon
15	20	right	Other	12:33:04	female	1	1	5	5	5	1	2235	cheveux
15	20	right	Other	12:33:04	female	2	5	1	1	1	1	956	soumon
15	20	right	Other	12:33:04	female	3	1	5	5	1	0	1993	cloche
15	20	right	Other	12:33:04	female	4	1	5	5	5	1	1328	fascine
15	20	right	Other	12:33:04	female	5	5	1	1	1	1	1627	huif
15	20	right	Other	12:33:04	female	6	1	5	5	1	0	1577	semonce
15	20	right	Other	12:33:04	female	7	1	5	5	1	0	3045	canoter 
15	20	right	Other	12:33:04	female	8	1	5	5	1	0	2047	infâme
15	20	right	Other	12:33:04	female	9	1	5	5	5	1	1197	fourmi
15	20	right	Other	12:33:04	female	10	1	5	5	1	0	3638	cadenas
15	20	right	Other	12:33:04	female	11	1	5	5	5	1	1165	racaille
15	20	right	Other	12:33:04	female	12	5	1	1	5	0	1850	pourcine
15	20	right	Other	12:33:04	female	13	1	5	5	1	0	1162	œillet
15	20	right	Other	12:33:04	female	14	5	1	1	5	0	2102	raplaner
15	20	right	Other	12:33:04	female	15	5	1	1	5	0	822	plaiser
15	20	right	Other	12:33:04	female	16	5	1	1	5	0	4766	cerveler
15	20	right	Other	12:33:04	female	17	5	1	1	1	1	1414	endifier
15	20	right	Other	12:33:04	female	18	5	1	1	5	0	3697	jamain
15	20	right	Other	12:33:04	female	19	1	5	5	5	1	918	ennemi
15	20	right	Other	12:33:04	female	20	1	5	5	1	0	1135	pouce
15	20	right	Other	12:33:04	female	21	5	1	1	5	0	700	metter
15	20	right	Other	12:33:04	female	22	1	5	5	5	1	1765	fosse
15	20	right	Other	12:33:04	female	23	1	5	5	5	1	727	inciter
15	20	right	Other	12:33:04	female	24	1	5	5	1	0	2730	salière
15	20	right	Other	12:33:04	female	25	1	5	5	1	0	1696	fouet
15	20	right	Other	12:33:04	female	26	5	1	1	5	0	1649	cessure
15	20	right	Other	12:33:04	female	27	1	5	5	5	1	1246	clouer
15	20	right	Other	12:33:04	female	28	1	5	5	1	0	1611	mappemonde
15	20	right	Other	12:33:04	female	29	5	1	1	1	1	2506	gloque
15	20	right	Other	12:33:04	female	30	1	5	5	1	0	2186	lézard
15	20	right	Other	12:33:04	female	31	5	1	1	5	0	821	sacher
15	20	right	Other	12:33:04	female	32	1	5	5	5	1	3120	nouer
15	20	right	Other	12:33:04	female	33	1	5	5	1	0	914	occire
15	20	right	Other	12:33:04	female	34	5	1	1	1	1	1396	écouce
15	20	right	Other	12:33:04	female	35	5	1	1	5	0	1312	osseaux
15	20	right	Other	12:33:04	female	36	5	1	1	5	0	3385	rejoute
15	20	right	Other	12:33:04	female	37	1	5	5	1	0	1660	escroc
15	20	right	Other	12:33:04	female	38	1	5	5	5	1	1150	hache
15	20	right	Other	12:33:04	female	39	5	1	1	1	1	1334	parchance
15	20	right	Other	12:33:04	female	40	1	5	5	5	1	2960	pinceau
15	20	right	Other	12:33:04	female	41	1	5	5	5	1	777	poisson
15	20	right	Other	12:33:04	female	42	1	5	5	1	0	915	robinet
15	20	right	Other	12:33:04	female	43	1	5	5	1	0	2372	amadouer
15	20	right	Other	12:33:04	female	44	1	5	5	5	1	1701	peigne
15	20	right	Other	12:33:04	female	45	5	1	1	5	0	2582	retruire
15	20	right	Other	12:33:04	female	46	1	5	5	5	1	1325	crayon
15	20	right	Other	12:33:04	female	47	5	1	1	1	1	1109	sentuelle
15	20	right	Other	12:33:04	female	48	1	5	5	1	0	1387	alourdir
15	20	right	Other	12:33:04	female	49	1	5	5	1	0	1357	marteau
15	20	right	Other	12:33:04	female	50	1	5	5	1	0	780	esquif
15	20	right	Other	12:33:04	female	51	1	5	5	1	0	1522	treillage
15	20	right	Other	12:33:04	female	52	1	5	5	5	1	1298	dauphin
15	20	right	Other	12:33:04	female	53	1	5	5	1	0	1040	orgueil
15	20	right	Other	12:33:04	female	54	1	5	5	1	0	2483	amorce
15	20	right	Other	12:33:04	female	55	1	5	5	5	1	1665	cintre
15	20	right	Other	12:33:04	female	56	1	5	5	5	1	1555	chameau
15	20	right	Other	12:33:04	female	57	1	5	5	5	1	701	bouton
15	20	right	Other	12:33:04	female	58	1	5	5	1	0	911	capeline
15	20	right	Other	12:33:04	female	59	1	5	5	1	0	967	lanière
15	20	right	Other	12:33:04	female	60	5	1	1	1	1	959	honteur
15	20	right	Other	12:33:04	female	61	1	5	5	5	1	1118	abêtir
15	20	right	Other	12:33:04	female	62	1	5	5	5	1	2983	fenêtre
15	20	right	Other	12:33:04	female	63	1	5	5	1	0	889	écureuil 
15	20	right	Other	12:33:04	female	64	1	5	5	1	0	2178	caddie
15	20	right	Other	12:33:04	female	65	5	1	1	1	1	882	détume
15	20	right	Other	12:33:04	female	66	5	1	1	1	1	1040	oeuiller
15	20	right	Other	12:33:04	female	67	1	5	5	1	0	1189	balai
15	20	right	Other	12:33:04	female	68	5	1	1	5	0	1023	prioche
15	20	right	Other	12:33:04	female	69	1	5	5	1	0	1097	vicelard
15	20	right	Other	12:33:04	female	70	5	1	1	1	1	4650	joueux
15	20	right	Other	12:33:04	female	71	5	1	1	1	1	2542	agire
15	20	right	Other	12:33:04	female	72	1	5	5	1	0	2549	éventail
15	20	right	Other	12:33:04	female	73	5	1	1	5	0	814	boutard
15	20	right	Other	12:33:04	female	74	1	5	5	1	0	3568	panier
15	20	right	Other	12:33:04	female	75	1	5	5	1	0	898	citrouille
15	20	right	Other	12:33:04	female	76	1	5	5	5	1	1480	bouilloire
15	20	right	Other	12:33:04	female	77	5	1	1	1	1	1165	parir
15	20	right	Other	12:33:04	female	78	1	5	5	1	0	2814	remporter
15	20	right	Other	12:33:04	female	79	5	1	1	1	1	2052	procoreux
15	20	right	Other	12:33:04	female	80	1	5	5	1	0	795	tanin
15	20	right	Other	12:33:04	female	81	1	5	5	5	1	734	église
15	20	right	Other	12:33:04	female	82	1	5	5	5	1	2701	indicible
15	20	right	Other	12:33:04	female	83	5	1	1	5	0	944	réporce
15	20	right	Other	12:33:04	female	84	1	5	5	5	1	721	mignon
16	19	right	Other	12:22:18	female	1	1	5	5	5	1	1497	cheveux
16	19	right	Other	12:22:18	female	2	5	1	1	1	1	859	soumon
16	19	right	Other	12:22:18	female	3	1	5	5	5	1	982	cloche
16	19	right	Other	12:22:18	female	4	1	5	5	1	0	1026	fascine
16	19	right	Other	12:22:18	female	5	5	1	1	1	1	548	huif
16	19	right	Other	12:22:18	female	6	1	5	5	1	0	744	semonce
16	19	right	Other	12:22:18	female	7	1	5	5	1	0	758	canoter 
16	19	right	Other	12:22:18	female	8	1	5	5	5	1	677	infâme
16	19	right	Other	12:22:18	female	9	1	5	5	1	0	769	fourmi
16	19	right	Other	12:22:18	female	10	1	5	5	1	0	1112	cadenas
16	19	right	Other	12:22:18	female	11	1	5	5	5	1	749	racaille
16	19	right	Other	12:22:18	female	12	5	1	1	5	0	771	pourcine
16	19	right	Other	12:22:18	female	13	1	5	5	1	0	1381	œillet
16	19	right	Other	12:22:18	female	14	5	1	1	5	0	800	raplaner
16	19	right	Other	12:22:18	female	15	5	1	1	5	0	836	plaiser
16	19	right	Other	12:22:18	female	16	5	1	1	1	1	615	cerveler
16	19	right	Other	12:22:18	female	17	5	1	1	1	1	1020	endifier
16	19	right	Other	12:22:18	female	18	5	1	1	5	0	754	jamain
16	19	right	Other	12:22:18	female	19	1	5	5	1	0	629	ennemi
16	19	right	Other	12:22:18	female	20	1	5	5	5	1	746	pouce
16	19	right	Other	12:22:18	female	21	5	1	1	5	0	919	metter
16	19	right	Other	12:22:18	female	22	1	5	5	1	0	803	fosse
16	19	right	Other	12:22:18	female	23	1	5	5	1	0	970	inciter
16	19	right	Other	12:22:18	female	24	1	5	5	5	1	755	salière
16	19	right	Other	12:22:18	female	25	1	5	5	5	1	841	fouet
16	19	right	Other	12:22:18	female	26	5	1	1	1	1	631	cessure
16	19	right	Other	12:22:18	female	27	1	5	5	1	0	799	clouer
16	19	right	Other	12:22:18	female	28	1	5	5	5	1	1407	mappemonde
16	19	right	Other	12:22:18	female	29	5	1	1	5	0	1146	gloque
16	19	right	Other	12:22:18	female	30	1	5	5	5	1	965	lézard
16	19	right	Other	12:22:18	female	31	5	1	1	1	1	573	sacher
16	19	right	Other	12:22:18	female	32	1	5	5	1	0	644	nouer
16	19	right	Other	12:22:18	female	33	1	5	5	5	1	683	occire
16	19	right	Other	12:22:18	female	34	5	1	1	5	0	648	écouce
16	19	right	Other	12:22:18	female	35	5	1	1	1	1	1020	osseaux
16	19	right	Other	12:22:18	female	36	5	1	1	1	1	1398	rejoute
16	19	right	Other	12:22:18	female	37	1	5	5	1	0	1407	escroc
16	19	right	Other	12:22:18	female	38	1	5	5	5	1	701	hache
16	19	right	Other	12:22:18	female	39	5	1	1	5	0	1244	parchance
16	19	right	Other	12:22:18	female	40	1	5	5	1	0	2648	pinceau
16	19	right	Other	12:22:18	female	41	1	5	5	1	0	1571	poisson
16	19	right	Other	12:22:18	female	42	1	5	5	1	0	999	robinet
16	19	right	Other	12:22:18	female	43	1	5	5	5	1	759	amadouer
16	19	right	Other	12:22:18	female	44	1	5	5	5	1	1018	peigne
16	19	right	Other	12:22:18	female	45	5	1	1	5	0	791	retruire
16	19	right	Other	12:22:18	female	46	1	5	5	5	1	1446	crayon
16	19	right	Other	12:22:18	female	47	5	1	1	5	0	807	sentuelle
16	19	right	Other	12:22:18	female	48	1	5	5	1	0	687	alourdir
16	19	right	Other	12:22:18	female	49	1	5	5	5	1	820	marteau
16	19	right	Other	12:22:18	female	50	1	5	5	1	0	1102	esquif
16	19	right	Other	12:22:18	female	51	1	5	5	5	1	1554	treillage
16	19	right	Other	12:22:18	female	52	1	5	5	1	0	1042	dauphin
16	19	right	Other	12:22:18	female	53	1	5	5	5	1	1061	orgueil
16	19	right	Other	12:22:18	female	54	1	5	5	1	0	1096	amorce
16	19	right	Other	12:22:18	female	55	1	5	5	1	0	1203	cintre
16	19	right	Other	12:22:18	female	56	1	5	5	1	0	3123	chameau
16	19	right	Other	12:22:18	female	57	1	5	5	1	0	1310	bouton
16	19	right	Other	12:22:18	female	58	1	5	5	5	1	1965	capeline
16	19	right	Other	12:22:18	female	59	1	5	5	5	1	776	lanière
16	19	right	Other	12:22:18	female	60	5	1	1	1	1	762	honteur
16	19	right	Other	12:22:18	female	61	1	5	5	5	1	684	abêtir
16	19	right	Other	12:22:18	female	62	1	5	5	5	1	710	fenêtre
16	19	right	Other	12:22:18	female	63	1	5	5	5	1	838	écureuil 
16	19	right	Other	12:22:18	female	64	1	5	5	1	0	872	caddie
16	19	right	Other	12:22:18	female	65	5	1	1	5	0	791	détume
16	19	right	Other	12:22:18	female	66	5	1	1	1	1	802	oeuiller
16	19	right	Other	12:22:18	female	67	1	5	5	1	0	1077	balai
16	19	right	Other	12:22:18	female	68	5	1	1	5	0	1317	prioche
16	19	right	Other	12:22:18	female	69	1	5	5	1	0	863	vicelard
16	19	right	Other	12:22:18	female	70	5	1	1	1	1	3930	joueux
16	19	right	Other	12:22:18	female	71	5	1	1	1	1	987	agire
16	19	right	Other	12:22:18	female	72	1	5	5	1	0	1208	éventail
16	19	right	Other	12:22:18	female	73	5	1	1	1	1	1165	boutard
16	19	right	Other	12:22:18	female	74	1	5	5	5	1	991	panier
16	19	right	Other	12:22:18	female	75	1	5	5	1	0	2966	citrouille
16	19	right	Other	12:22:18	female	76	1	5	5	5	1	818	bouilloire
16	19	right	Other	12:22:18	female	77	5	1	1	1	1	779	parir
16	19	right	Other	12:22:18	female	78	1	5	5	1	0	901	remporter
16	19	right	Other	12:22:18	female	79	5	1	1	1	1	1656	procoreux
16	19	right	Other	12:22:18	female	80	1	5	5	5	1	639	tanin
16	19	right	Other	12:22:18	female	81	1	5	5	5	1	598	église
16	19	right	Other	12:22:18	female	82	1	5	5	5	1	1032	indicible
16	19	right	Other	12:22:18	female	83	5	1	1	5	0	1268	réporce
16	19	right	Other	12:22:18	female	84	1	5	5	1	0	785	mignon
17	18	right	Other	13:32:34	male	1	1	5	5	5	1	4223	cheveux
17	18	right	Other	13:32:34	male	2	5	1	1	1	1	1640	soumon
17	18	right	Other	13:32:34	male	3	1	5	5	1	0	2652	cloche
17	18	right	Other	13:32:34	male	4	1	5	5	1	0	2459	fascine
17	18	right	Other	13:32:34	male	5	5	1	1	1	1	2975	huif
17	18	right	Other	13:32:34	male	6	1	5	5	1	0	3614	semonce
17	18	right	Other	13:32:34	male	7	1	5	5	1	0	2793	canoter 
17	18	right	Other	13:32:34	male	8	1	5	5	5	1	2869	infâme
17	18	right	Other	13:32:34	male	9	1	5	5	1	0	1113	fourmi
17	18	right	Other	13:32:34	male	10	1	5	5	1	0	1663	cadenas
17	18	right	Other	13:32:34	male	11	1	5	5	1	0	3939	racaille
17	18	right	Other	13:32:34	male	12	5	1	1	1	1	2571	pourcine
17	18	right	Other	13:32:34	male	13	1	5	5	1	0	2607	œillet
17	18	right	Other	13:32:34	male	14	5	1	1	1	1	3497	raplaner
17	18	right	Other	13:32:34	male	15	5	1	1	5	0	1105	plaiser
17	18	right	Other	13:32:34	male	16	5	1	1	1	1	3866	cerveler
17	18	right	Other	13:32:34	male	17	5	1	1	1	1	1741	endifier
17	18	right	Other	13:32:34	male	18	5	1	1	5	0	821	jamain
17	18	right	Other	13:32:34	male	19	1	5	5	1	0	2780	ennemi
17	18	right	Other	13:32:34	male	20	1	5	5	5	1	3190	pouce
17	18	right	Other	13:32:34	male	21	5	1	1	1	1	1690	metter
17	18	right	Other	13:32:34	male	22	1	5	5	1	0	1277	fosse
17	18	right	Other	13:32:34	male	23	1	5	5	1	0	2618	inciter
17	18	right	Other	13:32:34	male	24	1	5	5	1	0	2203	salière
17	18	right	Other	13:32:34	male	25	1	5	5	1	0	3274	fouet
17	18	right	Other	13:32:34	male	26	5	1	1	1	1	4218	cessure
17	18	right	Other	13:32:34	male	27	1	5	5	1	0	4652	clouer
17	18	right	Other	13:32:34	male	28	1	5	5	1	0	1702	mappemonde
17	18	right	Other	13:32:34	male	29	5	1	1	1	1	3459	gloque
17	18	right	Other	13:32:34	male	30	1	5	5	1	0	5192	lézard
17	18	right	Other	13:32:34	male	31	5	1	1	5	0	4188	sacher
17	18	right	Other	13:32:34	male	32	1	5	5	1	0	3774	nouer
17	18	right	Other	13:32:34	male	33	1	5	5	1	0	1130	occire
17	18	right	Other	13:32:34	male	34	5	1	1	5	0	1603	écouce
17	18	right	Other	13:32:34	male	35	5	1	1	1	1	2058	osseaux
17	18	right	Other	13:32:34	male	36	5	1	1	1	1	1098	rejoute
17	18	right	Other	13:32:34	male	37	1	5	5	1	0	1801	escroc
17	18	right	Other	13:32:34	male	38	1	5	5	5	1	1928	hache
17	18	right	Other	13:32:34	male	39	5	1	1	1	1	1335	parchance
17	18	right	Other	13:32:34	male	40	1	5	5	1	0	1369	pinceau
17	18	right	Other	13:32:34	male	41	1	5	5	5	1	1645	poisson
17	18	right	Other	13:32:34	male	42	1	5	5	1	0	963	robinet
17	18	right	Other	13:32:34	male	43	1	5	5	1	0	1132	amadouer
17	18	right	Other	13:32:34	male	44	1	5	5	1	0	2634	peigne
17	18	right	Other	13:32:34	male	45	5	1	1	1	1	1216	retruire
17	18	right	Other	13:32:34	male	46	1	5	5	1	0	3257	crayon
17	18	right	Other	13:32:34	male	47	5	1	1	1	1	2972	sentuelle
17	18	right	Other	13:32:34	male	48	1	5	5	1	0	892	alourdir
17	18	right	Other	13:32:34	male	49	1	5	5	1	0	1911	marteau
17	18	right	Other	13:32:34	male	50	1	5	5	1	0	2464	esquif
17	18	right	Other	13:32:34	male	51	1	5	5	1	0	2681	treillage
17	18	right	Other	13:32:34	male	52	1	5	5	1	0	1883	dauphin
17	18	right	Other	13:32:34	male	53	1	5	5	1	0	1561	orgueil
17	18	right	Other	13:32:34	male	54	1	5	5	1	0	2335	amorce
17	18	right	Other	13:32:34	male	55	1	5	5	5	1	1838	cintre
17	18	right	Other	13:32:34	male	56	1	5	5	1	0	3755	chameau
17	18	right	Other	13:32:34	male	57	1	5	5	1	0	2149	bouton
17	18	right	Other	13:32:34	male	58	1	5	5	1	0	1405	capeline
17	18	right	Other	13:32:34	male	59	1	5	5	1	0	1469	lanière
17	18	right	Other	13:32:34	male	60	5	1	1	1	1	1799	honteur
17	18	right	Other	13:32:34	male	61	1	5	5	1	0	1942	abêtir
17	18	right	Other	13:32:34	male	62	1	5	5	5	1	1983	fenêtre
17	18	right	Other	13:32:34	male	63	1	5	5	1	0	1246	écureuil 
17	18	right	Other	13:32:34	male	64	1	5	5	1	0	3449	caddie
17	18	right	Other	13:32:34	male	65	5	1	1	1	1	2347	détume
17	18	right	Other	13:32:34	male	66	5	1	1	1	1	3404	oeuiller
17	18	right	Other	13:32:34	male	67	1	5	5	1	0	1039	balai
17	18	right	Other	13:32:34	male	68	5	1	1	1	1	1156	prioche
17	18	right	Other	13:32:34	male	69	1	5	5	1	0	1367	vicelard
17	18	right	Other	13:32:34	male	70	5	1	1	5	0	1122	joueux
17	18	right	Other	13:32:34	male	71	5	1	1	1	1	1899	agire
17	18	right	Other	13:32:34	male	72	1	5	5	1	0	1034	éventail
17	18	right	Other	13:32:34	male	73	5	1	1	1	1	3034	boutard
17	18	right	Other	13:32:34	male	74	1	5	5	1	0	1290	panier
17	18	right	Other	13:32:34	male	75	1	5	5	1	0	2209	citrouille
17	18	right	Other	13:32:34	male	76	1	5	5	1	0	6627	bouilloire
17	18	right	Other	13:32:34	male	77	5	1	1	5	0	1183	parir
17	18	right	Other	13:32:34	male	78	1	5	5	1	0	1199	remporter
17	18	right	Other	13:32:34	male	79	5	1	1	5	0	1691	procoreux
17	18	right	Other	13:32:34	male	80	1	5	5	1	0	1322	tanin
17	18	right	Other	13:32:34	male	81	1	5	5	5	1	862	église
17	18	right	Other	13:32:34	male	82	1	5	5	1	0	3957	indicible
17	18	right	Other	13:32:34	male	83	5	1	1	1	1	2414	réporce
17	18	right	Other	13:32:34	male	84	1	5	5	5	1	1277	mignon
18	21	right	Other	14:52:03	male	1	1	5	5	1	0	8491	cheveux
18	21	right	Other	14:52:03	male	2	5	1	1	1	1	1261	soumon
18	21	right	Other	14:52:03	male	3	1	5	5	1	0	664	cloche
18	21	right	Other	14:52:03	male	4	1	5	5	1	0	630	fascine
18	21	right	Other	14:52:03	male	5	5	1	1	5	0	933	huif
18	21	right	Other	14:52:03	male	6	1	5	5	1	0	624	semonce
18	21	right	Other	14:52:03	male	7	1	5	5	1	0	544	canoter 
18	21	right	Other	14:52:03	male	8	1	5	5	1	0	722	infâme
18	21	right	Other	14:52:03	male	9	1	5	5	1	0	707	fourmi
18	21	right	Other	14:52:03	male	10	1	5	5	1	0	783	cadenas
18	21	right	Other	14:52:03	male	11	1	5	5	1	0	630	racaille
18	21	right	Other	14:52:03	male	12	5	1	1	5	0	977	pourcine
18	21	right	Other	14:52:03	male	13	1	5	5	1	0	1358	œillet
18	21	right	Other	14:52:03	male	14	5	1	1	1	1	595	raplaner
18	21	right	Other	14:52:03	male	15	5	1	1	5	0	746	plaiser
18	21	right	Other	14:52:03	male	16	5	1	1	5	0	790	cerveler
18	21	right	Other	14:52:03	male	17	5	1	1	1	1	612	endifier
18	21	right	Other	14:52:03	male	18	5	1	1	5	0	1011	jamain
18	21	right	Other	14:52:03	male	19	1	5	5	1	0	575	ennemi
18	21	right	Other	14:52:03	male	20	1	5	5	5	1	1292	pouce
18	21	right	Other	14:52:03	male	21	5	1	1	1	1	803	metter
18	21	right	Other	14:52:03	male	22	1	5	5	1	0	2104	fosse
18	21	right	Other	14:52:03	male	23	1	5	5	1	0	753	inciter
18	21	right	Other	14:52:03	male	24	1	5	5	5	1	762	salière
18	21	right	Other	14:52:03	male	25	1	5	5	1	0	654	fouet
18	21	right	Other	14:52:03	male	26	5	1	1	1	1	643	cessure
18	21	right	Other	14:52:03	male	27	1	5	5	1	0	716	clouer
18	21	right	Other	14:52:03	male	28	1	5	5	1	0	742	mappemonde
18	21	right	Other	14:52:03	male	29	5	1	1	1	1	499	gloque
18	21	right	Other	14:52:03	male	30	1	5	5	1	0	909	lézard
18	21	right	Other	14:52:03	male	31	5	1	1	1	1	544	sacher
18	21	right	Other	14:52:03	male	32	1	5	5	1	0	831	nouer
18	21	right	Other	14:52:03	male	33	1	5	5	5	1	764	occire
18	21	right	Other	14:52:03	male	34	5	1	1	1	1	1371	écouce
18	21	right	Other	14:52:03	male	35	5	1	1	1	1	586	osseaux
18	21	right	Other	14:52:03	male	36	5	1	1	1	1	1762	rejoute
18	21	right	Other	14:52:03	male	37	1	5	5	1	0	1361	escroc
18	21	right	Other	14:52:03	male	38	1	5	5	5	1	1302	hache
18	21	right	Other	14:52:03	male	39	5	1	1	1	1	1017	parchance
18	21	right	Other	14:52:03	male	40	1	5	5	1	0	801	pinceau
18	21	right	Other	14:52:03	male	41	1	5	5	5	1	948	poisson
18	21	right	Other	14:52:03	male	42	1	5	5	1	0	593	robinet
18	21	right	Other	14:52:03	male	43	1	5	5	1	0	682	amadouer
18	21	right	Other	14:52:03	male	44	1	5	5	1	0	797	peigne
18	21	right	Other	14:52:03	male	45	5	1	1	1	1	548	retruire
18	21	right	Other	14:52:03	male	46	1	5	5	5	1	745	crayon
18	21	right	Other	14:52:03	male	47	5	1	1	1	1	890	sentuelle
18	21	right	Other	14:52:03	male	48	1	5	5	1	0	710	alourdir
18	21	right	Other	14:52:03	male	49	1	5	5	1	0	1267	marteau
18	21	right	Other	14:52:03	male	50	1	5	5	1	0	725	esquif
18	21	right	Other	14:52:03	male	51	1	5	5	5	1	1133	treillage
18	21	right	Other	14:52:03	male	52	1	5	5	5	1	883	dauphin
18	21	right	Other	14:52:03	male	53	1	5	5	1	0	1219	orgueil
18	21	right	Other	14:52:03	male	54	1	5	5	1	0	843	amorce
18	21	right	Other	14:52:03	male	55	1	5	5	1	0	832	cintre
18	21	right	Other	14:52:03	male	56	1	5	5	1	0	1015	chameau
18	21	right	Other	14:52:03	male	57	1	5	5	1	0	892	bouton
18	21	right	Other	14:52:03	male	58	1	5	5	1	0	1395	capeline
18	21	right	Other	14:52:03	male	59	1	5	5	1	0	3047	lanière
18	21	right	Other	14:52:03	male	60	5	1	1	1	1	2608	honteur
18	21	right	Other	14:52:03	male	61	1	5	5	1	0	935	abêtir
18	21	right	Other	14:52:03	male	62	1	5	5	5	1	855	fenêtre
18	21	right	Other	14:52:03	male	63	1	5	5	1	0	694	écureuil 
18	21	right	Other	14:52:03	male	64	1	5	5	1	0	614	caddie
18	21	right	Other	14:52:03	male	65	5	1	1	1	1	872	détume
18	21	right	Other	14:52:03	male	66	5	1	1	1	1	1056	oeuiller
18	21	right	Other	14:52:03	male	67	1	5	5	1	0	700	balai
18	21	right	Other	14:52:03	male	68	5	1	1	1	1	1200	prioche
18	21	right	Other	14:52:03	male	69	1	5	5	1	0	659	vicelard
18	21	right	Other	14:52:03	male	70	5	1	1	5	0	728	joueux
18	21	right	Other	14:52:03	male	71	5	1	1	1	1	597	agire
18	21	right	Other	14:52:03	male	72	1	5	5	1	0	652	éventail
18	21	right	Other	14:52:03	male	73	5	1	1	1	1	683	boutard
18	21	right	Other	14:52:03	male	74	1	5	5	1	0	775	panier
18	21	right	Other	14:52:03	male	75	1	5	5	1	0	614	citrouille
18	21	right	Other	14:52:03	male	76	1	5	5	1	0	680	bouilloire
18	21	right	Other	14:52:03	male	77	5	1	1	5	0	913	parir
18	21	right	Other	14:52:03	male	78	1	5	5	1	0	667	remporter
18	21	right	Other	14:52:03	male	79	5	1	1	1	1	570	procoreux
18	21	right	Other	14:52:03	male	80	1	5	5	1	0	1264	tanin
18	21	right	Other	14:52:03	male	81	1	5	5	5	1	1275	église
18	21	right	Other	14:52:03	male	82	1	5	5	1	0	985	indicible
18	21	right	Other	14:52:03	male	83	5	1	1	1	1	1606	réporce
18	21	right	Other	14:52:03	male	84	1	5	5	5	1	1360	mignon
19	19	right	Other	13:55:50	female	1	1	5	5	5	1	2007	cheveux
19	19	right	Other	13:55:50	female	2	5	1	1	1	1	2612	soumon
19	19	right	Other	13:55:50	female	3	1	5	5	1	0	1055	cloche
19	19	right	Other	13:55:50	female	4	1	5	5	1	0	1225	fascine
19	19	right	Other	13:55:50	female	5	5	1	1	1	1	876	huif
19	19	right	Other	13:55:50	female	6	1	5	5	1	0	1395	semonce
19	19	right	Other	13:55:50	female	7	1	5	5	1	0	653	canoter 
19	19	right	Other	13:55:50	female	8	1	5	5	1	0	1110	infâme
19	19	right	Other	13:55:50	female	9	1	5	5	1	0	1118	fourmi
19	19	right	Other	13:55:50	female	10	1	5	5	1	0	650	cadenas
19	19	right	Other	13:55:50	female	11	1	5	5	5	1	1156	racaille
19	19	right	Other	13:55:50	female	12	5	1	1	5	0	1060	pourcine
19	19	right	Other	13:55:50	female	13	1	5	5	1	0	1175	œillet
19	19	right	Other	13:55:50	female	14	5	1	1	1	1	1529	raplaner
19	19	right	Other	13:55:50	female	15	5	1	1	1	1	1163	plaiser
19	19	right	Other	13:55:50	female	16	5	1	1	1	1	5270	cerveler
19	19	right	Other	13:55:50	female	17	5	1	1	1	1	1422	endifier
19	19	right	Other	13:55:50	female	18	5	1	1	5	0	2332	jamain
19	19	right	Other	13:55:50	female	19	1	5	5	1	0	1058	ennemi
19	19	right	Other	13:55:50	female	20	1	5	5	5	1	1276	pouce
19	19	right	Other	13:55:50	female	21	5	1	1	1	1	890	metter
19	19	right	Other	13:55:50	female	22	1	5	5	5	1	932	fosse
19	19	right	Other	13:55:50	female	23	1	5	5	5	1	929	inciter
19	19	right	Other	13:55:50	female	24	1	5	5	5	1	1287	salière
19	19	right	Other	13:55:50	female	25	1	5	5	5	1	1401	fouet
19	19	right	Other	13:55:50	female	26	5	1	1	5	0	1217	cessure
19	19	right	Other	13:55:50	female	27	1	5	5	1	0	1383	clouer
19	19	right	Other	13:55:50	female	28	1	5	5	1	0	1302	mappemonde
19	19	right	Other	13:55:50	female	29	5	1	1	1	1	1011	gloque
19	19	right	Other	13:55:50	female	30	1	5	5	5	1	3636	lézard
19	19	right	Other	13:55:50	female	31	5	1	1	1	1	2240	sacher
19	19	right	Other	13:55:50	female	32	1	5	5	5	1	2185	nouer
19	19	right	Other	13:55:50	female	33	1	5	5	1	0	1131	occire
19	19	right	Other	13:55:50	female	34	5	1	1	1	1	3605	écouce
19	19	right	Other	13:55:50	female	35	5	1	1	1	1	2400	osseaux
19	19	right	Other	13:55:50	female	36	5	1	1	1	1	1348	rejoute
19	19	right	Other	13:55:50	female	37	1	5	5	1	0	1093	escroc
19	19	right	Other	13:55:50	female	38	1	5	5	1	0	1939	hache
19	19	right	Other	13:55:50	female	39	5	1	1	5	0	4093	parchance
19	19	right	Other	13:55:50	female	40	1	5	5	1	0	5512	pinceau
19	19	right	Other	13:55:50	female	41	1	5	5	1	0	1167	poisson
19	19	right	Other	13:55:50	female	42	1	5	5	1	0	1257	robinet
19	19	right	Other	13:55:50	female	43	1	5	5	1	0	1128	amadouer
19	19	right	Other	13:55:50	female	44	1	5	5	5	1	1575	peigne
19	19	right	Other	13:55:50	female	45	5	1	1	5	0	1517	retruire
19	19	right	Other	13:55:50	female	46	1	5	5	1	0	1010	crayon
19	19	right	Other	13:55:50	female	47	5	1	1	5	0	2427	sentuelle
19	19	right	Other	13:55:50	female	48	1	5	5	1	0	1800	alourdir
19	19	right	Other	13:55:50	female	49	1	5	5	1	0	1734	marteau
19	19	right	Other	13:55:50	female	50	1	5	5	1	0	900	esquif
19	19	right	Other	13:55:50	female	51	1	5	5	5	1	1185	treillage
19	19	right	Other	13:55:50	female	52	1	5	5	1	0	3660	dauphin
19	19	right	Other	13:55:50	female	53	1	5	5	1	0	1582	orgueil
19	19	right	Other	13:55:50	female	54	1	5	5	1	0	975	amorce
19	19	right	Other	13:55:50	female	55	1	5	5	1	0	1258	cintre
19	19	right	Other	13:55:50	female	56	1	5	5	1	0	1225	chameau
19	19	right	Other	13:55:50	female	57	1	5	5	1	0	687	bouton
19	19	right	Other	13:55:50	female	58	1	5	5	1	0	599	capeline
19	19	right	Other	13:55:50	female	59	1	5	5	5	1	1351	lanière
19	19	right	Other	13:55:50	female	60	5	1	1	1	1	1746	honteur
19	19	right	Other	13:55:50	female	61	1	5	5	1	0	1918	abêtir
19	19	right	Other	13:55:50	female	62	1	5	5	5	1	1275	fenêtre
19	19	right	Other	13:55:50	female	63	1	5	5	1	0	3160	écureuil 
19	19	right	Other	13:55:50	female	64	1	5	5	1	0	946	caddie
19	19	right	Other	13:55:50	female	65	5	1	1	5	0	1424	détume
19	19	right	Other	13:55:50	female	66	5	1	1	5	0	2713	oeuiller
19	19	right	Other	13:55:50	female	67	1	5	5	1	0	830	balai
19	19	right	Other	13:55:50	female	68	5	1	1	5	0	1869	prioche
19	19	right	Other	13:55:50	female	69	1	5	5	1	0	1197	vicelard
19	19	right	Other	13:55:50	female	70	5	1	1	5	0	1153	joueux
19	19	right	Other	13:55:50	female	71	5	1	1	1	1	761	agire
19	19	right	Other	13:55:50	female	72	1	5	5	1	0	1069	éventail
19	19	right	Other	13:55:50	female	73	5	1	1	5	0	2752	boutard
19	19	right	Other	13:55:50	female	74	1	5	5	1	0	2095	panier
19	19	right	Other	13:55:50	female	75	1	5	5	5	1	4214	citrouille
19	19	right	Other	13:55:50	female	76	1	5	5	5	1	1527	bouilloire
19	19	right	Other	13:55:50	female	77	5	1	1	1	1	1079	parir
19	19	right	Other	13:55:50	female	78	1	5	5	1	0	1442	remporter
19	19	right	Other	13:55:50	female	79	5	1	1	1	1	884	procoreux
19	19	right	Other	13:55:50	female	80	1	5	5	1	0	841	tanin
19	19	right	Other	13:55:50	female	81	1	5	5	1	0	1998	église
19	19	right	Other	13:55:50	female	82	1	5	5	5	1	2242	indicible
19	19	right	Other	13:55:50	female	83	5	1	1	5	0	1921	réporce
19	19	right	Other	13:55:50	female	84	1	5	5	5	1	2556	mignon
20	21	right	Other	10:20:34	male	1	1	5	5	1	0	3715	cheveux
20	21	right	Other	10:20:34	male	2	5	1	1	1	1	1271	soumon
20	21	right	Other	10:20:34	male	3	1	5	5	1	0	709	cloche
20	21	right	Other	10:20:34	male	4	1	5	5	1	0	785	fascine
20	21	right	Other	10:20:34	male	5	5	1	1	1	1	1188	huif
20	21	right	Other	10:20:34	male	6	1	5	5	1	0	665	semonce
20	21	right	Other	10:20:34	male	7	1	5	5	1	0	603	canoter 
20	21	right	Other	10:20:34	male	8	1	5	5	1	0	811	infâme
20	21	right	Other	10:20:34	male	9	1	5	5	1	0	507	fourmi
20	21	right	Other	10:20:34	male	10	1	5	5	1	0	680	cadenas
20	21	right	Other	10:20:34	male	11	1	5	5	1	0	721	racaille
20	21	right	Other	10:20:34	male	12	5	1	1	1	1	468	pourcine
20	21	right	Other	10:20:34	male	13	1	5	5	1	0	1010	œillet
20	21	right	Other	10:20:34	male	14	5	1	1	1	1	664	raplaner
20	21	right	Other	10:20:34	male	15	5	1	1	1	1	3796	plaiser
20	21	right	Other	10:20:34	male	16	5	1	1	1	1	719	cerveler
20	21	right	Other	10:20:34	male	17	5	1	1	1	1	590	endifier
20	21	right	Other	10:20:34	male	18	5	1	1	5	0	1377	jamain
20	21	right	Other	10:20:34	male	19	1	5	5	1	0	652	ennemi
20	21	right	Other	10:20:34	male	20	1	5	5	1	0	734	pouce
20	21	right	Other	10:20:34	male	21	5	1	1	1	1	555	metter
20	21	right	Other	10:20:34	male	22	1	5	5	1	0	429	fosse
20	21	right	Other	10:20:34	male	23	1	5	5	1	0	604	inciter
20	21	right	Other	10:20:34	male	24	1	5	5	1	0	677	salière
20	21	right	Other	10:20:34	male	25	1	5	5	1	0	978	fouet
20	21	right	Other	10:20:34	male	26	5	1	1	1	1	546	cessure
20	21	right	Other	10:20:34	male	27	1	5	5	1	0	492	clouer
20	21	right	Other	10:20:34	male	28	1	5	5	1	0	883	mappemonde
20	21	right	Other	10:20:34	male	29	5	1	1	1	1	539	gloque
20	21	right	Other	10:20:34	male	30	1	5	5	1	0	870	lézard
20	21	right	Other	10:20:34	male	31	5	1	1	1	1	436	sacher
20	21	right	Other	10:20:34	male	32	1	5	5	1	0	807	nouer
20	21	right	Other	10:20:34	male	33	1	5	5	1	0	871	occire
20	21	right	Other	10:20:34	male	34	5	1	1	1	1	522	écouce
20	21	right	Other	10:20:34	male	35	5	1	1	1	1	862	osseaux
20	21	right	Other	10:20:34	male	36	5	1	1	1	1	837	rejoute
20	21	right	Other	10:20:34	male	37	1	5	5	1	0	613	escroc
20	21	right	Other	10:20:34	male	38	1	5	5	1	0	521	hache
20	21	right	Other	10:20:34	male	39	5	1	1	1	1	639	parchance
20	21	right	Other	10:20:34	male	40	1	5	5	1	0	985	pinceau
20	21	right	Other	10:20:34	male	41	1	5	5	5	1	1037	poisson
20	21	right	Other	10:20:34	male	42	1	5	5	1	0	1140	robinet
20	21	right	Other	10:20:34	male	43	1	5	5	1	0	508	amadouer
20	21	right	Other	10:20:34	male	44	1	5	5	1	0	820	peigne
20	21	right	Other	10:20:34	male	45	5	1	1	1	1	625	retruire
20	21	right	Other	10:20:34	male	46	1	5	5	1	0	860	crayon
20	21	right	Other	10:20:34	male	47	5	1	1	1	1	1112	sentuelle
20	21	right	Other	10:20:34	male	48	1	5	5	1	0	664	alourdir
20	21	right	Other	10:20:34	male	49	1	5	5	1	0	545	marteau
20	21	right	Other	10:20:34	male	50	1	5	5	1	0	482	esquif
20	21	right	Other	10:20:34	male	51	1	5	5	1	0	707	treillage
20	21	right	Other	10:20:34	male	52	1	5	5	1	0	1182	dauphin
20	21	right	Other	10:20:34	male	53	1	5	5	1	0	1267	orgueil
20	21	right	Other	10:20:34	male	54	1	5	5	1	0	1561	amorce
20	21	right	Other	10:20:34	male	55	1	5	5	1	0	957	cintre
20	21	right	Other	10:20:34	male	56	1	5	5	1	0	618	chameau
20	21	right	Other	10:20:34	male	57	1	5	5	1	0	823	bouton
20	21	right	Other	10:20:34	male	58	1	5	5	1	0	865	capeline
20	21	right	Other	10:20:34	male	59	1	5	5	1	0	558	lanière
20	21	right	Other	10:20:34	male	60	5	1	1	1	1	691	honteur
20	21	right	Other	10:20:34	male	61	1	5	5	1	0	465	abêtir
20	21	right	Other	10:20:34	male	62	1	5	5	1	0	624	fenêtre
20	21	right	Other	10:20:34	male	63	1	5	5	1	0	492	écureuil 
20	21	right	Other	10:20:34	male	64	1	5	5	1	0	610	caddie
20	21	right	Other	10:20:34	male	65	5	1	1	1	1	956	détume
20	21	right	Other	10:20:34	male	66	5	1	1	1	1	656	oeuiller
20	21	right	Other	10:20:34	male	67	1	5	5	1	0	541	balai
20	21	right	Other	10:20:34	male	68	5	1	1	1	1	1019	prioche
20	21	right	Other	10:20:34	male	69	1	5	5	1	0	757	vicelard
20	21	right	Other	10:20:34	male	70	5	1	1	5	0	1622	joueux
20	21	right	Other	10:20:34	male	71	5	1	1	1	1	538	agire
20	21	right	Other	10:20:34	male	72	1	5	5	1	0	513	éventail
20	21	right	Other	10:20:34	male	73	5	1	1	1	1	529	boutard
20	21	right	Other	10:20:34	male	74	1	5	5	1	0	763	panier
20	21	right	Other	10:20:34	male	75	1	5	5	1	0	1106	citrouille
20	21	right	Other	10:20:34	male	76	1	5	5	1	0	833	bouilloire
20	21	right	Other	10:20:34	male	77	5	1	1	1	1	665	parir
20	21	right	Other	10:20:34	male	78	1	5	5	1	0	847	remporter
20	21	right	Other	10:20:34	male	79	5	1	1	1	1	1124	procoreux
20	21	right	Other	10:20:34	male	80	1	5	5	1	0	839	tanin
20	21	right	Other	10:20:34	male	81	1	5	5	5	1	768	église
20	21	right	Other	10:20:34	male	82	1	5	5	1	0	1879	indicible
20	21	right	Other	10:20:34	male	83	5	1	1	1	1	685	réporce
20	21	right	Other	10:20:34	male	84	1	5	5	1	0	668	mignon
21	18	right	Other	13:25:11	female	1	1	5	5	5	1	3773	cheveux
21	18	right	Other	13:25:11	female	2	5	1	1	1	1	1700	soumon
21	18	right	Other	13:25:11	female	3	1	5	5	1	0	1067	cloche
21	18	right	Other	13:25:11	female	4	1	5	5	1	0	1248	fascine
21	18	right	Other	13:25:11	female	5	5	1	1	1	1	823	huif
21	18	right	Other	13:25:11	female	6	1	5	5	1	0	1835	semonce
21	18	right	Other	13:25:11	female	7	1	5	5	5	1	1135	canoter 
21	18	right	Other	13:25:11	female	8	1	5	5	5	1	739	infâme
21	18	right	Other	13:25:11	female	9	1	5	5	5	1	925	fourmi
21	18	right	Other	13:25:11	female	10	1	5	5	1	0	924	cadenas
21	18	right	Other	13:25:11	female	11	1	5	5	5	1	787	racaille
21	18	right	Other	13:25:11	female	12	5	1	1	5	0	2211	pourcine
21	18	right	Other	13:25:11	female	13	1	5	5	1	0	1895	œillet
21	18	right	Other	13:25:11	female	14	5	1	1	1	1	2097	raplaner
21	18	right	Other	13:25:11	female	15	5	1	1	5	0	696	plaiser
21	18	right	Other	13:25:11	female	16	5	1	1	5	0	4316	cerveler
21	18	right	Other	13:25:11	female	17	5	1	1	5	0	690	endifier
21	18	right	Other	13:25:11	female	18	5	1	1	5	0	664	jamain
21	18	right	Other	13:25:11	female	19	1	5	5	1	0	837	ennemi
21	18	right	Other	13:25:11	female	20	1	5	5	5	1	896	pouce
21	18	right	Other	13:25:11	female	21	5	1	1	5	0	846	metter
21	18	right	Other	13:25:11	female	22	1	5	5	5	1	547	fosse
21	18	right	Other	13:25:11	female	23	1	5	5	5	1	566	inciter
21	18	right	Other	13:25:11	female	24	1	5	5	5	1	715	salière
21	18	right	Other	13:25:11	female	25	1	5	5	5	1	1080	fouet
21	18	right	Other	13:25:11	female	26	5	1	1	5	0	883	cessure
21	18	right	Other	13:25:11	female	27	1	5	5	1	0	924	clouer
21	18	right	Other	13:25:11	female	28	1	5	5	1	0	822	mappemonde
21	18	right	Other	13:25:11	female	29	5	1	1	1	1	886	gloque
21	18	right	Other	13:25:11	female	30	1	5	5	1	0	1014	lézard
21	18	right	Other	13:25:11	female	31	5	1	1	5	0	2379	sacher
21	18	right	Other	13:25:11	female	32	1	5	5	5	1	648	nouer
21	18	right	Other	13:25:11	female	33	1	5	5	5	1	841	occire
21	18	right	Other	13:25:11	female	34	5	1	1	5	0	526	écouce
21	18	right	Other	13:25:11	female	35	5	1	1	1	1	2166	osseaux
21	18	right	Other	13:25:11	female	36	5	1	1	5	0	882	rejoute
21	18	right	Other	13:25:11	female	37	1	5	5	1	0	811	escroc
21	18	right	Other	13:25:11	female	38	1	5	5	1	0	1542	hache
21	18	right	Other	13:25:11	female	39	5	1	1	5	0	943	parchance
21	18	right	Other	13:25:11	female	40	1	5	5	1	0	5760	pinceau
21	18	right	Other	13:25:11	female	41	1	5	5	5	1	729	poisson
21	18	right	Other	13:25:11	female	42	1	5	5	1	0	897	robinet
21	18	right	Other	13:25:11	female	43	1	5	5	1	0	1025	amadouer
21	18	right	Other	13:25:11	female	44	1	5	5	5	1	836	peigne
21	18	right	Other	13:25:11	female	45	5	1	1	5	0	2810	retruire
21	18	right	Other	13:25:11	female	46	1	5	5	5	1	712	crayon
21	18	right	Other	13:25:11	female	47	5	1	1	1	1	1217	sentuelle
21	18	right	Other	13:25:11	female	48	1	5	5	5	1	710	alourdir
21	18	right	Other	13:25:11	female	49	1	5	5	5	1	896	marteau
21	18	right	Other	13:25:11	female	50	1	5	5	1	0	953	esquif
21	18	right	Other	13:25:11	female	51	1	5	5	1	0	867	treillage
21	18	right	Other	13:25:11	female	52	1	5	5	1	0	1244	dauphin
21	18	right	Other	13:25:11	female	53	1	5	5	5	1	1130	orgueil
21	18	right	Other	13:25:11	female	54	1	5	5	1	0	1044	amorce
21	18	right	Other	13:25:11	female	55	1	5	5	1	0	846	cintre
21	18	right	Other	13:25:11	female	56	1	5	5	5	1	851	chameau
21	18	right	Other	13:25:11	female	57	1	5	5	5	1	625	bouton
21	18	right	Other	13:25:11	female	58	1	5	5	1	0	6400	capeline
21	18	right	Other	13:25:11	female	59	1	5	5	5	1	753	lanière
21	18	right	Other	13:25:11	female	60	5	1	1	1	1	860	honteur
21	18	right	Other	13:25:11	female	61	1	5	5	5	1	723	abêtir
21	18	right	Other	13:25:11	female	62	1	5	5	5	1	547	fenêtre
21	18	right	Other	13:25:11	female	63	1	5	5	1	0	995	écureuil 
21	18	right	Other	13:25:11	female	64	1	5	5	1	0	808	caddie
21	18	right	Other	13:25:11	female	65	5	1	1	5	0	1095	détume
21	18	right	Other	13:25:11	female	66	5	1	1	1	1	960	oeuiller
21	18	right	Other	13:25:11	female	67	1	5	5	1	0	762	balai
21	18	right	Other	13:25:11	female	68	5	1	1	5	0	839	prioche
21	18	right	Other	13:25:11	female	69	1	5	5	1	0	866	vicelard
21	18	right	Other	13:25:11	female	70	5	1	1	1	1	1575	joueux
21	18	right	Other	13:25:11	female	71	5	1	1	1	1	801	agire
21	18	right	Other	13:25:11	female	72	1	5	5	1	0	968	éventail
21	18	right	Other	13:25:11	female	73	5	1	1	5	0	973	boutard
21	18	right	Other	13:25:11	female	74	1	5	5	1	0	5895	panier
21	18	right	Other	13:25:11	female	75	1	5	5	1	0	811	citrouille
21	18	right	Other	13:25:11	female	76	1	5	5	5	1	776	bouilloire
21	18	right	Other	13:25:11	female	77	5	1	1	1	1	704	parir
21	18	right	Other	13:25:11	female	78	1	5	5	5	1	704	remporter
21	18	right	Other	13:25:11	female	79	5	1	1	5	0	648	procoreux
21	18	right	Other	13:25:11	female	80	1	5	5	1	0	567	tanin
21	18	right	Other	13:25:11	female	81	1	5	5	5	1	907	église
21	18	right	Other	13:25:11	female	82	1	5	5	1	0	3529	indicible
21	18	right	Other	13:25:11	female	83	5	1	1	1	1	1871	réporce
21	18	right	Other	13:25:11	female	84	1	5	5	5	1	1234	mignon
22	22	right	Ferdy	9:28:50	female	1	1	5	5	1	0	1508	cheveux
22	22	right	Ferdy	9:28:50	female	2	5	1	1	1	1	860	soumon
22	22	right	Ferdy	9:28:50	female	3	1	5	5	1	0	1286	cloche
22	22	right	Ferdy	9:28:50	female	4	1	5	5	5	1	1250	fascine
22	22	right	Ferdy	9:28:50	female	5	5	1	1	1	1	810	huif
22	22	right	Ferdy	9:28:50	female	6	1	5	5	1	0	1391	semonce
22	22	right	Ferdy	9:28:50	female	7	1	5	5	1	0	793	canoter 
22	22	right	Ferdy	9:28:50	female	8	1	5	5	5	1	887	infâme
22	22	right	Ferdy	9:28:50	female	9	1	5	5	5	1	991	fourmi
22	22	right	Ferdy	9:28:50	female	10	1	5	5	1	0	1180	cadenas
22	22	right	Ferdy	9:28:50	female	11	1	5	5	5	1	843	racaille
22	22	right	Ferdy	9:28:50	female	12	5	1	1	5	0	2128	pourcine
22	22	right	Ferdy	9:28:50	female	13	1	5	5	1	0	2042	œillet
22	22	right	Ferdy	9:28:50	female	14	5	1	1	1	1	1362	raplaner
22	22	right	Ferdy	9:28:50	female	15	5	1	1	5	0	615	plaiser
22	22	right	Ferdy	9:28:50	female	16	5	1	1	5	0	783	cerveler
22	22	right	Ferdy	9:28:50	female	17	5	1	1	1	1	1564	endifier
22	22	right	Ferdy	9:28:50	female	18	5	1	1	5	0	601	jamain
22	22	right	Ferdy	9:28:50	female	19	1	5	5	1	0	949	ennemi
22	22	right	Ferdy	9:28:50	female	20	1	5	5	5	1	1232	pouce
22	22	right	Ferdy	9:28:50	female	21	5	1	1	1	1	733	metter
22	22	right	Ferdy	9:28:50	female	22	1	5	5	5	1	1525	fosse
22	22	right	Ferdy	9:28:50	female	23	1	5	5	1	0	2778	inciter
22	22	right	Ferdy	9:28:50	female	24	1	5	5	5	1	897	salière
22	22	right	Ferdy	9:28:50	female	25	1	5	5	1	0	1666	fouet
22	22	right	Ferdy	9:28:50	female	26	5	1	1	5	0	1485	cessure
22	22	right	Ferdy	9:28:50	female	27	1	5	5	5	1	1181	clouer
22	22	right	Ferdy	9:28:50	female	28	1	5	5	1	0	2075	mappemonde
22	22	right	Ferdy	9:28:50	female	29	5	1	1	1	1	2258	gloque
22	22	right	Ferdy	9:28:50	female	30	1	5	5	5	1	1044	lézard
22	22	right	Ferdy	9:28:50	female	31	5	1	1	5	0	672	sacher
22	22	right	Ferdy	9:28:50	female	32	1	5	5	5	1	609	nouer
22	22	right	Ferdy	9:28:50	female	33	1	5	5	1	0	1811	occire
22	22	right	Ferdy	9:28:50	female	34	5	1	1	5	0	605	écouce
22	22	right	Ferdy	9:28:50	female	35	5	1	1	1	1	1559	osseaux
22	22	right	Ferdy	9:28:50	female	36	5	1	1	5	0	1111	rejoute
22	22	right	Ferdy	9:28:50	female	37	1	5	5	1	0	1243	escroc
22	22	right	Ferdy	9:28:50	female	38	1	5	5	5	1	668	hache
22	22	right	Ferdy	9:28:50	female	39	5	1	1	5	0	1341	parchance
22	22	right	Ferdy	9:28:50	female	40	1	5	5	1	0	2339	pinceau
22	22	right	Ferdy	9:28:50	female	41	1	5	5	5	1	1172	poisson
22	22	right	Ferdy	9:28:50	female	42	1	5	5	5	1	1217	robinet
22	22	right	Ferdy	9:28:50	female	43	1	5	5	5	1	1197	amadouer
22	22	right	Ferdy	9:28:50	female	44	1	5	5	5	1	770	peigne
22	22	right	Ferdy	9:28:50	female	45	5	1	1	5	0	978	retruire
22	22	right	Ferdy	9:28:50	female	46	1	5	5	5	1	725	crayon
22	22	right	Ferdy	9:28:50	female	47	5	1	1	5	0	1507	sentuelle
22	22	right	Ferdy	9:28:50	female	48	1	5	5	5	1	1731	alourdir
22	22	right	Ferdy	9:28:50	female	49	1	5	5	5	1	787	marteau
22	22	right	Ferdy	9:28:50	female	50	1	5	5	1	0	862	esquif
22	22	right	Ferdy	9:28:50	female	51	1	5	5	5	1	1262	treillage
22	22	right	Ferdy	9:28:50	female	52	1	5	5	1	0	1982	dauphin
22	22	right	Ferdy	9:28:50	female	53	1	5	5	5	1	1235	orgueil
22	22	right	Ferdy	9:28:50	female	54	1	5	5	1	0	1240	amorce
22	22	right	Ferdy	9:28:50	female	55	1	5	5	1	0	1174	cintre
22	22	right	Ferdy	9:28:50	female	56	1	5	5	5	1	869	chameau
22	22	right	Ferdy	9:28:50	female	57	1	5	5	5	1	716	bouton
22	22	right	Ferdy	9:28:50	female	58	1	5	5	1	0	1462	capeline
22	22	right	Ferdy	9:28:50	female	59	1	5	5	5	1	702	lanière
22	22	right	Ferdy	9:28:50	female	60	5	1	1	1	1	1408	honteur
22	22	right	Ferdy	9:28:50	female	61	1	5	5	1	0	1912	abêtir
22	22	right	Ferdy	9:28:50	female	62	1	5	5	5	1	713	fenêtre
22	22	right	Ferdy	9:28:50	female	63	1	5	5	5	1	1078	écureuil 
22	22	right	Ferdy	9:28:50	female	64	1	5	5	1	0	889	caddie
22	22	right	Ferdy	9:28:50	female	65	5	1	1	5	0	990	détume
22	22	right	Ferdy	9:28:50	female	66	5	1	1	5	0	907	oeuiller
22	22	right	Ferdy	9:28:50	female	67	1	5	5	5	1	954	balai
22	22	right	Ferdy	9:28:50	female	68	5	1	1	1	1	1097	prioche
22	22	right	Ferdy	9:28:50	female	69	1	5	5	1	0	910	vicelard
22	22	right	Ferdy	9:28:50	female	70	5	1	1	5	0	582	joueux
22	22	right	Ferdy	9:28:50	female	71	5	1	1	5	0	694	agire
22	22	right	Ferdy	9:28:50	female	72	1	5	5	1	0	2268	éventail
22	22	right	Ferdy	9:28:50	female	73	5	1	1	5	0	694	boutard
22	22	right	Ferdy	9:28:50	female	74	1	5	5	5	1	1335	panier
22	22	right	Ferdy	9:28:50	female	75	1	5	5	5	1	1504	citrouille
22	22	right	Ferdy	9:28:50	female	76	1	5	5	5	1	2015	bouilloire
22	22	right	Ferdy	9:28:50	female	77	5	1	1	5	0	727	parir
22	22	right	Ferdy	9:28:50	female	78	1	5	5	1	0	1885	remporter
22	22	right	Ferdy	9:28:50	female	79	5	1	1	5	0	1468	procoreux
22	22	right	Ferdy	9:28:50	female	80	1	5	5	1	0	870	tanin
22	22	right	Ferdy	9:28:50	female	81	1	5	5	5	1	1012	église
22	22	right	Ferdy	9:28:50	female	82	1	5	5	5	1	4479	indicible
22	22	right	Ferdy	9:28:50	female	83	5	1	1	5	0	660	réporce
22	22	right	Ferdy	9:28:50	female	84	1	5	5	5	1	630	mignon
24	18	right	Ferdy	14:59:50	female	1	1	5	5	5	1	1620	cheveux
24	18	right	Ferdy	14:59:50	female	2	5	1	1	1	1	1140	soumon
24	18	right	Ferdy	14:59:50	female	3	1	5	5	1	0	1277	cloche
24	18	right	Ferdy	14:59:50	female	4	1	5	5	1	0	1624	fascine
24	18	right	Ferdy	14:59:50	female	5	5	1	1	1	1	995	huif
24	18	right	Ferdy	14:59:50	female	6	1	5	5	1	0	1564	semonce
24	18	right	Ferdy	14:59:50	female	7	1	5	5	1	0	1407	canoter 
24	18	right	Ferdy	14:59:50	female	8	1	5	5	1	0	1579	infâme
24	18	right	Ferdy	14:59:50	female	9	1	5	5	1	0	972	fourmi
24	18	right	Ferdy	14:59:50	female	10	1	5	5	1	0	1318	cadenas
24	18	right	Ferdy	14:59:50	female	11	1	5	5	1	0	1649	racaille
24	18	right	Ferdy	14:59:50	female	12	5	1	1	1	1	1098	pourcine
24	18	right	Ferdy	14:59:50	female	13	1	5	5	1	0	1715	œillet
24	18	right	Ferdy	14:59:50	female	14	5	1	1	1	1	1371	raplaner
24	18	right	Ferdy	14:59:50	female	15	5	1	1	1	1	1410	plaiser
24	18	right	Ferdy	14:59:50	female	16	5	1	1	1	1	1744	cerveler
24	18	right	Ferdy	14:59:50	female	17	5	1	1	1	1	1298	endifier
24	18	right	Ferdy	14:59:50	female	18	5	1	1	5	0	1520	jamain
24	18	right	Ferdy	14:59:50	female	19	1	5	5	1	0	832	ennemi
24	18	right	Ferdy	14:59:50	female	20	1	5	5	1	0	1005	pouce
24	18	right	Ferdy	14:59:50	female	21	5	1	1	1	1	1676	metter
24	18	right	Ferdy	14:59:50	female	22	1	5	5	1	0	1277	fosse
24	18	right	Ferdy	14:59:50	female	23	1	5	5	1	0	2260	inciter
24	18	right	Ferdy	14:59:50	female	24	1	5	5	5	1	1092	salière
24	18	right	Ferdy	14:59:50	female	25	1	5	5	1	0	1011	fouet
24	18	right	Ferdy	14:59:50	female	26	5	1	1	1	1	1251	cessure
24	18	right	Ferdy	14:59:50	female	27	1	5	5	1	0	1378	clouer
24	18	right	Ferdy	14:59:50	female	28	1	5	5	1	0	1751	mappemonde
24	18	right	Ferdy	14:59:50	female	29	5	1	1	1	1	983	gloque
24	18	right	Ferdy	14:59:50	female	30	1	5	5	1	0	1127	lézard
24	18	right	Ferdy	14:59:50	female	31	5	1	1	5	0	2328	sacher
24	18	right	Ferdy	14:59:50	female	32	1	5	5	1	0	1627	nouer
24	18	right	Ferdy	14:59:50	female	33	1	5	5	1	0	1984	occire
24	18	right	Ferdy	14:59:50	female	34	5	1	1	1	1	1565	écouce
24	18	right	Ferdy	14:59:50	female	35	5	1	1	1	1	1081	osseaux
24	18	right	Ferdy	14:59:50	female	36	5	1	1	1	1	1979	rejoute
24	18	right	Ferdy	14:59:50	female	37	1	5	5	1	0	1443	escroc
24	18	right	Ferdy	14:59:50	female	38	1	5	5	1	0	1309	hache
24	18	right	Ferdy	14:59:50	female	39	5	1	1	1	1	1642	parchance
24	18	right	Ferdy	14:59:50	female	40	1	5	5	1	0	1929	pinceau
24	18	right	Ferdy	14:59:50	female	41	1	5	5	5	1	614	poisson
24	18	right	Ferdy	14:59:50	female	42	1	5	5	1	0	925	robinet
24	18	right	Ferdy	14:59:50	female	43	1	5	5	1	0	1602	amadouer
24	18	right	Ferdy	14:59:50	female	44	1	5	5	5	1	1040	peigne
24	18	right	Ferdy	14:59:50	female	45	5	1	1	1	1	897	retruire
24	18	right	Ferdy	14:59:50	female	46	1	5	5	5	1	737	crayon
24	18	right	Ferdy	14:59:50	female	47	5	1	1	1	1	1355	sentuelle
24	18	right	Ferdy	14:59:50	female	48	1	5	5	1	0	850	alourdir
24	18	right	Ferdy	14:59:50	female	49	1	5	5	5	1	1951	marteau
24	18	right	Ferdy	14:59:50	female	50	1	5	5	1	0	1077	esquif
24	18	right	Ferdy	14:59:50	female	51	1	5	5	1	0	1436	treillage
24	18	right	Ferdy	14:59:50	female	52	1	5	5	1	0	1842	dauphin
24	18	right	Ferdy	14:59:50	female	53	1	5	5	1	0	1179	orgueil
24	18	right	Ferdy	14:59:50	female	54	1	5	5	1	0	1147	amorce
24	18	right	Ferdy	14:59:50	female	55	1	5	5	1	0	1354	cintre
24	18	right	Ferdy	14:59:50	female	56	1	5	5	1	0	1288	chameau
24	18	right	Ferdy	14:59:50	female	57	1	5	5	5	1	729	bouton
24	18	right	Ferdy	14:59:50	female	58	1	5	5	1	0	711	capeline
24	18	right	Ferdy	14:59:50	female	59	1	5	5	1	0	911	lanière
24	18	right	Ferdy	14:59:50	female	60	5	1	1	1	1	893	honteur
24	18	right	Ferdy	14:59:50	female	61	1	5	5	1	0	1249	abêtir
24	18	right	Ferdy	14:59:50	female	62	1	5	5	5	1	1682	fenêtre
24	18	right	Ferdy	14:59:50	female	63	1	5	5	1	0	1203	écureuil 
24	18	right	Ferdy	14:59:50	female	64	1	5	5	1	0	855	caddie
24	18	right	Ferdy	14:59:50	female	65	5	1	1	1	1	762	détume
24	18	right	Ferdy	14:59:50	female	66	5	1	1	1	1	1731	oeuiller
24	18	right	Ferdy	14:59:50	female	67	1	5	5	1	0	1006	balai
24	18	right	Ferdy	14:59:50	female	68	5	1	1	5	0	1433	prioche
24	18	right	Ferdy	14:59:50	female	69	1	5	5	1	0	1280	vicelard
24	18	right	Ferdy	14:59:50	female	70	5	1	1	5	0	735	joueux
24	18	right	Ferdy	14:59:50	female	71	5	1	1	1	1	583	agire
24	18	right	Ferdy	14:59:50	female	72	1	5	5	1	0	1099	éventail
24	18	right	Ferdy	14:59:50	female	73	5	1	1	1	1	878	boutard
24	18	right	Ferdy	14:59:50	female	74	1	5	5	1	0	1004	panier
24	18	right	Ferdy	14:59:50	female	75	1	5	5	1	0	938	citrouille
24	18	right	Ferdy	14:59:50	female	76	1	5	5	1	0	1448	bouilloire
24	18	right	Ferdy	14:59:50	female	77	5	1	1	1	1	804	parir
24	18	right	Ferdy	14:59:50	female	78	1	5	5	1	0	651	remporter
24	18	right	Ferdy	14:59:50	female	79	5	1	1	1	1	840	procoreux
24	18	right	Ferdy	14:59:50	female	80	1	5	5	1	0	719	tanin
24	18	right	Ferdy	14:59:50	female	81	1	5	5	5	1	1093	église
24	18	right	Ferdy	14:59:50	female	82	1	5	5	1	0	1061	indicible
24	18	right	Ferdy	14:59:50	female	83	5	1	1	1	1	1345	réporce
24	18	right	Ferdy	14:59:50	female	84	1	5	5	5	1	1472	mignon
25	18	right	Ferdy	9:57:48	female	1	1	5	5	5	1	1460	cheveux
25	18	right	Ferdy	9:57:48	female	2	5	1	1	5	0	1787	soumon
25	18	right	Ferdy	9:57:48	female	3	1	5	5	1	0	733	cloche
25	18	right	Ferdy	9:57:48	female	4	1	5	5	5	1	3119	fascine
25	18	right	Ferdy	9:57:48	female	5	5	1	1	5	0	1108	huif
25	18	right	Ferdy	9:57:48	female	6	1	5	5	1	0	958	semonce
25	18	right	Ferdy	9:57:48	female	7	1	5	5	1	0	619	canoter 
25	18	right	Ferdy	9:57:48	female	8	1	5	5	1	0	669	infâme
25	18	right	Ferdy	9:57:48	female	9	1	5	5	5	1	798	fourmi
25	18	right	Ferdy	9:57:48	female	10	1	5	5	1	0	1297	cadenas
25	18	right	Ferdy	9:57:48	female	11	1	5	5	1	0	738	racaille
25	18	right	Ferdy	9:57:48	female	12	5	1	1	1	1	697	pourcine
25	18	right	Ferdy	9:57:48	female	13	1	5	5	1	0	1820	œillet
25	18	right	Ferdy	9:57:48	female	14	5	1	1	1	1	846	raplaner
25	18	right	Ferdy	9:57:48	female	15	5	1	1	5	0	697	plaiser
25	18	right	Ferdy	9:57:48	female	16	5	1	1	5	0	1126	cerveler
25	18	right	Ferdy	9:57:48	female	17	5	1	1	1	1	1215	endifier
25	18	right	Ferdy	9:57:48	female	18	5	1	1	5	0	880	jamain
25	18	right	Ferdy	9:57:48	female	19	1	5	5	5	1	808	ennemi
25	18	right	Ferdy	9:57:48	female	20	1	5	5	5	1	1759	pouce
25	18	right	Ferdy	9:57:48	female	21	5	1	1	5	0	618	metter
25	18	right	Ferdy	9:57:48	female	22	1	5	5	1	0	975	fosse
25	18	right	Ferdy	9:57:48	female	23	1	5	5	5	1	818	inciter
25	18	right	Ferdy	9:57:48	female	24	1	5	5	1	0	984	salière
25	18	right	Ferdy	9:57:48	female	25	1	5	5	1	0	766	fouet
25	18	right	Ferdy	9:57:48	female	26	5	1	1	5	0	805	cessure
25	18	right	Ferdy	9:57:48	female	27	1	5	5	1	0	761	clouer
25	18	right	Ferdy	9:57:48	female	28	1	5	5	1	0	716	mappemonde
25	18	right	Ferdy	9:57:48	female	29	5	1	1	1	1	959	gloque
25	18	right	Ferdy	9:57:48	female	30	1	5	5	1	0	1116	lézard
25	18	right	Ferdy	9:57:48	female	31	5	1	1	5	0	674	sacher
25	18	right	Ferdy	9:57:48	female	32	1	5	5	5	1	3165	nouer
25	18	right	Ferdy	9:57:48	female	33	1	5	5	1	0	649	occire
25	18	right	Ferdy	9:57:48	female	34	5	1	1	1	1	1413	écouce
25	18	right	Ferdy	9:57:48	female	35	5	1	1	5	0	961	osseaux
25	18	right	Ferdy	9:57:48	female	36	5	1	1	5	0	748	rejoute
25	18	right	Ferdy	9:57:48	female	37	1	5	5	5	1	1189	escroc
25	18	right	Ferdy	9:57:48	female	38	1	5	5	1	0	1334	hache
25	18	right	Ferdy	9:57:48	female	39	5	1	1	1	1	714	parchance
25	18	right	Ferdy	9:57:48	female	40	1	5	5	1	0	1132	pinceau
25	18	right	Ferdy	9:57:48	female	41	1	5	5	5	1	752	poisson
25	18	right	Ferdy	9:57:48	female	42	1	5	5	5	1	1033	robinet
25	18	right	Ferdy	9:57:48	female	43	1	5	5	1	0	925	amadouer
25	18	right	Ferdy	9:57:48	female	44	1	5	5	1	0	941	peigne
25	18	right	Ferdy	9:57:48	female	45	5	1	1	5	0	1948	retruire
25	18	right	Ferdy	9:57:48	female	46	1	5	5	5	1	654	crayon
25	18	right	Ferdy	9:57:48	female	47	5	1	1	1	1	3724	sentuelle
25	18	right	Ferdy	9:57:48	female	48	1	5	5	1	0	754	alourdir
25	18	right	Ferdy	9:57:48	female	49	1	5	5	1	0	928	marteau
25	18	right	Ferdy	9:57:48	female	50	1	5	5	1	0	569	esquif
25	18	right	Ferdy	9:57:48	female	51	1	5	5	1	0	571	treillage
25	18	right	Ferdy	9:57:48	female	52	1	5	5	5	1	2978	dauphin
25	18	right	Ferdy	9:57:48	female	53	1	5	5	1	0	2062	orgueil
25	18	right	Ferdy	9:57:48	female	54	1	5	5	1	0	1416	amorce
25	18	right	Ferdy	9:57:48	female	55	1	5	5	1	0	785	cintre
25	18	right	Ferdy	9:57:48	female	56	1	5	5	1	0	1848	chameau
25	18	right	Ferdy	9:57:48	female	57	1	5	5	5	1	851	bouton
25	18	right	Ferdy	9:57:48	female	58	1	5	5	1	0	1727	capeline
25	18	right	Ferdy	9:57:48	female	59	1	5	5	1	0	1290	lanière
25	18	right	Ferdy	9:57:48	female	60	5	1	1	5	0	779	honteur
25	18	right	Ferdy	9:57:48	female	61	1	5	5	1	0	1461	abêtir
25	18	right	Ferdy	9:57:48	female	62	1	5	5	5	1	547	fenêtre
25	18	right	Ferdy	9:57:48	female	63	1	5	5	1	0	1541	écureuil 
25	18	right	Ferdy	9:57:48	female	64	1	5	5	1	0	1725	caddie
25	18	right	Ferdy	9:57:48	female	65	5	1	1	1	1	1083	détume
25	18	right	Ferdy	9:57:48	female	66	5	1	1	5	0	1338	oeuiller
25	18	right	Ferdy	9:57:48	female	67	1	5	5	1	0	1733	balai
25	18	right	Ferdy	9:57:48	female	68	5	1	1	1	1	1735	prioche
25	18	right	Ferdy	9:57:48	female	69	1	5	5	1	0	1619	vicelard
25	18	right	Ferdy	9:57:48	female	70	5	1	1	5	0	691	joueux
25	18	right	Ferdy	9:57:48	female	71	5	1	1	5	0	2072	agire
25	18	right	Ferdy	9:57:48	female	72	1	5	5	1	0	1693	éventail
25	18	right	Ferdy	9:57:48	female	73	5	1	1	1	1	2319	boutard
25	18	right	Ferdy	9:57:48	female	74	1	5	5	1	0	1154	panier
25	18	right	Ferdy	9:57:48	female	75	1	5	5	1	0	4445	citrouille
25	18	right	Ferdy	9:57:48	female	76	1	5	5	1	0	3732	bouilloire
25	18	right	Ferdy	9:57:48	female	77	5	1	1	1	1	4440	parir
25	18	right	Ferdy	9:57:48	female	78	1	5	5	5	1	1106	remporter
25	18	right	Ferdy	9:57:48	female	79	5	1	1	5	0	1457	procoreux
25	18	right	Ferdy	9:57:48	female	80	1	5	5	1	0	1454	tanin
25	18	right	Ferdy	9:57:48	female	81	1	5	5	5	1	1097	église
25	18	right	Ferdy	9:57:48	female	82	1	5	5	1	0	1766	indicible
25	18	right	Ferdy	9:57:48	female	83	5	1	1	1	1	1799	réporce
25	18	right	Ferdy	9:57:48	female	84	1	5	5	5	1	1563	mignon
26	23	right	Other	15:25:58	female	1	1	5	5	5	1	3205	cheveux
26	23	right	Other	15:25:58	female	2	5	1	1	1	1	1770	soumon
26	23	right	Other	15:25:58	female	3	1	5	5	5	1	2421	cloche
26	23	right	Other	15:25:58	female	4	1	5	5	5	1	1035	fascine
26	23	right	Other	15:25:58	female	5	5	1	1	1	1	1620	huif
26	23	right	Other	15:25:58	female	6	1	5	5	1	0	1475	semonce
26	23	right	Other	15:25:58	female	7	1	5	5	1	0	1219	canoter 
26	23	right	Other	15:25:58	female	8	1	5	5	1	0	1980	infâme
26	23	right	Other	15:25:58	female	9	1	5	5	1	0	2269	fourmi
26	23	right	Other	15:25:58	female	10	1	5	5	5	1	2737	cadenas
26	23	right	Other	15:25:58	female	11	1	5	5	5	1	1933	racaille
26	23	right	Other	15:25:58	female	12	5	1	1	5	0	2387	pourcine
26	23	right	Other	15:25:58	female	13	1	5	5	1	0	1979	œillet
26	23	right	Other	15:25:58	female	14	5	1	1	1	1	3227	raplaner
26	23	right	Other	15:25:58	female	15	5	1	1	5	0	1102	plaiser
26	23	right	Other	15:25:58	female	16	5	1	1	5	0	1917	cerveler
26	23	right	Other	15:25:58	female	17	5	1	1	1	1	2401	endifier
26	23	right	Other	15:25:58	female	18	5	1	1	5	0	2097	jamain
26	23	right	Other	15:25:58	female	19	1	5	5	1	0	1500	ennemi
26	23	right	Other	15:25:58	female	20	1	5	5	5	1	2586	pouce
26	23	right	Other	15:25:58	female	21	5	1	1	1	1	1476	metter
26	23	right	Other	15:25:58	female	22	1	5	5	1	0	1735	fosse
26	23	right	Other	15:25:58	female	23	1	5	5	1	0	3874	inciter
26	23	right	Other	15:25:58	female	24	1	5	5	5	1	1825	salière
26	23	right	Other	15:25:58	female	25	1	5	5	5	1	906	fouet
26	23	right	Other	15:25:58	female	26	5	1	1	5	0	1634	cessure
26	23	right	Other	15:25:58	female	27	1	5	5	1	0	1679	clouer
26	23	right	Other	15:25:58	female	28	1	5	5	1	0	1986	mappemonde
26	23	right	Other	15:25:58	female	29	5	1	1	5	0	1608	gloque
26	23	right	Other	15:25:58	female	30	1	5	5	1	0	1459	lézard
26	23	right	Other	15:25:58	female	31	5	1	1	5	0	2175	sacher
26	23	right	Other	15:25:58	female	32	1	5	5	5	1	5397	nouer
26	23	right	Other	15:25:58	female	33	1	5	5	5	1	1926	occire
26	23	right	Other	15:25:58	female	34	5	1	1	1	1	1683	écouce
26	23	right	Other	15:25:58	female	35	5	1	1	5	0	2191	osseaux
26	23	right	Other	15:25:58	female	36	5	1	1	5	0	3801	rejoute
26	23	right	Other	15:25:58	female	37	1	5	5	1	0	1900	escroc
26	23	right	Other	15:25:58	female	38	1	5	5	5	1	3363	hache
26	23	right	Other	15:25:58	female	39	5	1	1	1	1	2817	parchance
26	23	right	Other	15:25:58	female	40	1	5	5	1	0	1674	pinceau
26	23	right	Other	15:25:58	female	41	1	5	5	5	1	1891	poisson
26	23	right	Other	15:25:58	female	42	1	5	5	5	1	8346	robinet
26	23	right	Other	15:25:58	female	43	1	5	5	1	0	2581	amadouer
26	23	right	Other	15:25:58	female	44	1	5	5	1	0	2078	peigne
26	23	right	Other	15:25:58	female	45	5	1	1	5	0	4454	retruire
26	23	right	Other	15:25:58	female	46	1	5	5	1	0	1888	crayon
26	23	right	Other	15:25:58	female	47	5	1	1	1	1	4382	sentuelle
26	23	right	Other	15:25:58	female	48	1	5	5	1	0	1826	alourdir
26	23	right	Other	15:25:58	female	49	1	5	5	5	1	1790	marteau
26	23	right	Other	15:25:58	female	50	1	5	5	1	0	6347	esquif
26	23	right	Other	15:25:58	female	51	1	5	5	5	1	3529	treillage
26	23	right	Other	15:25:58	female	52	1	5	5	1	0	2050	dauphin
26	23	right	Other	15:25:58	female	53	1	5	5	5	1	2315	orgueil
26	23	right	Other	15:25:58	female	54	1	5	5	5	1	3416	amorce
26	23	right	Other	15:25:58	female	55	1	5	5	1	0	2580	cintre
26	23	right	Other	15:25:58	female	56	1	5	5	5	1	2275	chameau
26	23	right	Other	15:25:58	female	57	1	5	5	5	1	4374	bouton
26	23	right	Other	15:25:58	female	58	1	5	5	1	0	2898	capeline
26	23	right	Other	15:25:58	female	59	1	5	5	5	1	5047	lanière
26	23	right	Other	15:25:58	female	60	5	1	1	1	1	2264	honteur
26	23	right	Other	15:25:58	female	61	1	5	5	1	0	2032	abêtir
26	23	right	Other	15:25:58	female	62	1	5	5	5	1	2958	fenêtre
26	23	right	Other	15:25:58	female	63	1	5	5	1	0	2512	écureuil 
26	23	right	Other	15:25:58	female	64	1	5	5	1	0	2281	caddie
26	23	right	Other	15:25:58	female	65	5	1	1	1	1	4250	détume
26	23	right	Other	15:25:58	female	66	5	1	1	5	0	1552	oeuiller
26	23	right	Other	15:25:58	female	67	1	5	5	5	1	1317	balai
26	23	right	Other	15:25:58	female	68	5	1	1	5	0	1663	prioche
26	23	right	Other	15:25:58	female	69	1	5	5	1	0	2038	vicelard
26	23	right	Other	15:25:58	female	70	5	1	1	5	0	2565	joueux
26	23	right	Other	15:25:58	female	71	5	1	1	5	0	5899	agire
26	23	right	Other	15:25:58	female	72	1	5	5	1	0	998	éventail
26	23	right	Other	15:25:58	female	73	5	1	1	1	1	3013	boutard
26	23	right	Other	15:25:58	female	74	1	5	5	5	1	4972	panier
26	23	right	Other	15:25:58	female	75	1	5	5	1	0	2376	citrouille
26	23	right	Other	15:25:58	female	76	1	5	5	1	0	4035	bouilloire
26	23	right	Other	15:25:58	female	77	5	1	1	1	1	3594	parir
26	23	right	Other	15:25:58	female	78	1	5	5	1	0	4329	remporter
26	23	right	Other	15:25:58	female	79	5	1	1	5	0	1836	procoreux
26	23	right	Other	15:25:58	female	80	1	5	5	5	1	1509	tanin
26	23	right	Other	15:25:58	female	81	1	5	5	5	1	1082	église
26	23	right	Other	15:25:58	female	82	1	5	5	5	1	3344	indicible
26	23	right	Other	15:25:58	female	83	5	1	1	1	1	2077	réporce
26	23	right	Other	15:25:58	female	84	1	5	5	5	1	4122	mignon
27	22	right	Other	13:51:11	male	1	1	5	5	5	1	2286	cheveux
27	22	right	Other	13:51:11	male	2	5	1	1	1	1	1134	soumon
27	22	right	Other	13:51:11	male	3	1	5	5	1	0	918	cloche
27	22	right	Other	13:51:11	male	4	1	5	5	1	0	1699	fascine
27	22	right	Other	13:51:11	male	5	5	1	1	1	1	1048	huif
27	22	right	Other	13:51:11	male	6	1	5	5	1	0	899	semonce
27	22	right	Other	13:51:11	male	7	1	5	5	1	0	979	canoter 
27	22	right	Other	13:51:11	male	8	1	5	5	5	1	1339	infâme
27	22	right	Other	13:51:11	male	9	1	5	5	1	0	770	fourmi
27	22	right	Other	13:51:11	male	10	1	5	5	1	0	1167	cadenas
27	22	right	Other	13:51:11	male	11	1	5	5	1	0	1170	racaille
27	22	right	Other	13:51:11	male	12	5	1	1	5	0	1190	pourcine
27	22	right	Other	13:51:11	male	13	1	5	5	1	0	1373	œillet
27	22	right	Other	13:51:11	male	14	5	1	1	1	1	1153	raplaner
27	22	right	Other	13:51:11	male	15	5	1	1	5	0	1001	plaiser
27	22	right	Other	13:51:11	male	16	5	1	1	1	1	885	cerveler
27	22	right	Other	13:51:11	male	17	5	1	1	1	1	1010	endifier
27	22	right	Other	13:51:11	male	18	5	1	1	1	1	887	jamain
27	22	right	Other	13:51:11	male	19	1	5	5	5	1	1058	ennemi
27	22	right	Other	13:51:11	male	20	1	5	5	5	1	973	pouce
27	22	right	Other	13:51:11	male	21	5	1	1	1	1	828	metter
27	22	right	Other	13:51:11	male	22	1	5	5	5	1	1041	fosse
27	22	right	Other	13:51:11	male	23	1	5	5	1	0	963	inciter
27	22	right	Other	13:51:11	male	24	1	5	5	5	1	1607	salière
27	22	right	Other	13:51:11	male	25	1	5	5	5	1	1272	fouet
27	22	right	Other	13:51:11	male	26	5	1	1	1	1	1106	cessure
27	22	right	Other	13:51:11	male	27	1	5	5	5	1	1400	clouer
27	22	right	Other	13:51:11	male	28	1	5	5	1	0	1144	mappemonde
27	22	right	Other	13:51:11	male	29	5	1	1	1	1	1302	gloque
27	22	right	Other	13:51:11	male	30	1	5	5	1	0	1389	lézard
27	22	right	Other	13:51:11	male	31	5	1	1	5	0	1615	sacher
27	22	right	Other	13:51:11	male	32	1	5	5	1	0	1548	nouer
27	22	right	Other	13:51:11	male	33	1	5	5	1	0	746	occire
27	22	right	Other	13:51:11	male	34	5	1	1	1	1	1566	écouce
27	22	right	Other	13:51:11	male	35	5	1	1	1	1	1158	osseaux
27	22	right	Other	13:51:11	male	36	5	1	1	1	1	1331	rejoute
27	22	right	Other	13:51:11	male	37	1	5	5	1	0	1105	escroc
27	22	right	Other	13:51:11	male	38	1	5	5	5	1	1284	hache
27	22	right	Other	13:51:11	male	39	5	1	1	1	1	1247	parchance
27	22	right	Other	13:51:11	male	40	1	5	5	1	0	1030	pinceau
27	22	right	Other	13:51:11	male	41	1	5	5	5	1	798	poisson
27	22	right	Other	13:51:11	male	42	1	5	5	1	0	884	robinet
27	22	right	Other	13:51:11	male	43	1	5	5	1	0	1466	amadouer
27	22	right	Other	13:51:11	male	44	1	5	5	5	1	1125	peigne
27	22	right	Other	13:51:11	male	45	5	1	1	1	1	1238	retruire
27	22	right	Other	13:51:11	male	46	1	5	5	5	1	1098	crayon
27	22	right	Other	13:51:11	male	47	5	1	1	1	1	954	sentuelle
27	22	right	Other	13:51:11	male	48	1	5	5	1	0	1373	alourdir
27	22	right	Other	13:51:11	male	49	1	5	5	1	0	748	marteau
27	22	right	Other	13:51:11	male	50	1	5	5	1	0	849	esquif
27	22	right	Other	13:51:11	male	51	1	5	5	1	0	1082	treillage
27	22	right	Other	13:51:11	male	52	1	5	5	5	1	848	dauphin
27	22	right	Other	13:51:11	male	53	1	5	5	5	1	1997	orgueil
27	22	right	Other	13:51:11	male	54	1	5	5	1	0	893	amorce
27	22	right	Other	13:51:11	male	55	1	5	5	5	1	1046	cintre
27	22	right	Other	13:51:11	male	56	1	5	5	1	0	905	chameau
27	22	right	Other	13:51:11	male	57	1	5	5	5	1	895	bouton
27	22	right	Other	13:51:11	male	58	1	5	5	1	0	814	capeline
27	22	right	Other	13:51:11	male	59	1	5	5	1	0	983	lanière
27	22	right	Other	13:51:11	male	60	5	1	1	1	1	967	honteur
27	22	right	Other	13:51:11	male	61	1	5	5	5	1	1559	abêtir
27	22	right	Other	13:51:11	male	62	1	5	5	5	1	1175	fenêtre
27	22	right	Other	13:51:11	male	63	1	5	5	1	0	1292	écureuil 
27	22	right	Other	13:51:11	male	64	1	5	5	1	0	1039	caddie
27	22	right	Other	13:51:11	male	65	5	1	1	1	1	967	détume
27	22	right	Other	13:51:11	male	66	5	1	1	1	1	859	oeuiller
27	22	right	Other	13:51:11	male	67	1	5	5	1	0	889	balai
27	22	right	Other	13:51:11	male	68	5	1	1	1	1	1277	prioche
27	22	right	Other	13:51:11	male	69	1	5	5	1	0	882	vicelard
27	22	right	Other	13:51:11	male	70	5	1	1	5	0	841	joueux
27	22	right	Other	13:51:11	male	71	5	1	1	1	1	1645	agire
27	22	right	Other	13:51:11	male	72	1	5	5	1	0	1233	éventail
27	22	right	Other	13:51:11	male	73	5	1	1	1	1	1073	boutard
27	22	right	Other	13:51:11	male	74	1	5	5	1	0	965	panier
27	22	right	Other	13:51:11	male	75	1	5	5	1	0	1323	citrouille
27	22	right	Other	13:51:11	male	76	1	5	5	5	1	2053	bouilloire
27	22	right	Other	13:51:11	male	77	5	1	1	5	0	1076	parir
27	22	right	Other	13:51:11	male	78	1	5	5	1	0	697	remporter
27	22	right	Other	13:51:11	male	79	5	1	1	1	1	1151	procoreux
27	22	right	Other	13:51:11	male	80	1	5	5	1	0	785	tanin
27	22	right	Other	13:51:11	male	81	1	5	5	5	1	855	église
27	22	right	Other	13:51:11	male	82	1	5	5	1	0	1674	indicible
27	22	right	Other	13:51:11	male	83	5	1	1	1	1	1414	réporce
27	22	right	Other	13:51:11	male	84	1	5	5	5	1	755	mignon
28	22	right	Ferdy	12:00:26	female	1	1	5	5	1	0	1834	cheveux
28	22	right	Ferdy	12:00:26	female	2	5	1	1	1	1	1162	soumon
28	22	right	Ferdy	12:00:26	female	3	1	5	5	5	1	1042	cloche
28	22	right	Ferdy	12:00:26	female	4	1	5	5	5	1	1080	fascine
28	22	right	Ferdy	12:00:26	female	5	5	1	1	1	1	796	huif
28	22	right	Ferdy	12:00:26	female	6	1	5	5	1	0	750	semonce
28	22	right	Ferdy	12:00:26	female	7	1	5	5	1	0	658	canoter 
28	22	right	Ferdy	12:00:26	female	8	1	5	5	5	1	1030	infâme
28	22	right	Ferdy	12:00:26	female	9	1	5	5	1	0	726	fourmi
28	22	right	Ferdy	12:00:26	female	10	1	5	5	1	0	682	cadenas
28	22	right	Ferdy	12:00:26	female	11	1	5	5	1	0	792	racaille
28	22	right	Ferdy	12:00:26	female	12	5	1	1	1	1	995	pourcine
28	22	right	Ferdy	12:00:26	female	13	1	5	5	1	0	937	œillet
28	22	right	Ferdy	12:00:26	female	14	5	1	1	1	1	1151	raplaner
28	22	right	Ferdy	12:00:26	female	15	5	1	1	5	0	2206	plaiser
28	22	right	Ferdy	12:00:26	female	16	5	1	1	5	0	2156	cerveler
28	22	right	Ferdy	12:00:26	female	17	5	1	1	1	1	681	endifier
28	22	right	Ferdy	12:00:26	female	18	5	1	1	5	0	1028	jamain
28	22	right	Ferdy	12:00:26	female	19	1	5	5	1	0	1756	ennemi
28	22	right	Ferdy	12:00:26	female	20	1	5	5	1	0	1426	pouce
28	22	right	Ferdy	12:00:26	female	21	5	1	1	1	1	1856	metter
28	22	right	Ferdy	12:00:26	female	22	1	5	5	1	0	1834	fosse
28	22	right	Ferdy	12:00:26	female	23	1	5	5	5	1	1190	inciter
28	22	right	Ferdy	12:00:26	female	24	1	5	5	5	1	881	salière
28	22	right	Ferdy	12:00:26	female	25	1	5	5	1	0	726	fouet
28	22	right	Ferdy	12:00:26	female	26	5	1	1	5	0	830	cessure
28	22	right	Ferdy	12:00:26	female	27	1	5	5	1	0	1809	clouer
28	22	right	Ferdy	12:00:26	female	28	1	5	5	1	0	1065	mappemonde
28	22	right	Ferdy	12:00:26	female	29	5	1	1	5	0	1068	gloque
28	22	right	Ferdy	12:00:26	female	30	1	5	5	1	0	2007	lézard
28	22	right	Ferdy	12:00:26	female	31	5	1	1	5	0	1937	sacher
28	22	right	Ferdy	12:00:26	female	32	1	5	5	1	0	2221	nouer
28	22	right	Ferdy	12:00:26	female	33	1	5	5	1	0	1845	occire
28	22	right	Ferdy	12:00:26	female	34	5	1	1	1	1	1174	écouce
28	22	right	Ferdy	12:00:26	female	35	5	1	1	1	1	713	osseaux
28	22	right	Ferdy	12:00:26	female	36	5	1	1	1	1	2287	rejoute
28	22	right	Ferdy	12:00:26	female	37	1	5	5	1	0	1132	escroc
28	22	right	Ferdy	12:00:26	female	38	1	5	5	5	1	791	hache
28	22	right	Ferdy	12:00:26	female	39	5	1	1	5	0	1312	parchance
28	22	right	Ferdy	12:00:26	female	40	1	5	5	1	0	1431	pinceau
28	22	right	Ferdy	12:00:26	female	41	1	5	5	5	1	679	poisson
28	22	right	Ferdy	12:00:26	female	42	1	5	5	1	0	727	robinet
28	22	right	Ferdy	12:00:26	female	43	1	5	5	1	0	646	amadouer
28	22	right	Ferdy	12:00:26	female	44	1	5	5	1	0	1092	peigne
28	22	right	Ferdy	12:00:26	female	45	5	1	1	5	0	1948	retruire
28	22	right	Ferdy	12:00:26	female	46	1	5	5	1	0	1503	crayon
28	22	right	Ferdy	12:00:26	female	47	5	1	1	1	1	1754	sentuelle
28	22	right	Ferdy	12:00:26	female	48	1	5	5	1	0	1681	alourdir
28	22	right	Ferdy	12:00:26	female	49	1	5	5	1	0	702	marteau
28	22	right	Ferdy	12:00:26	female	50	1	5	5	1	0	569	esquif
28	22	right	Ferdy	12:00:26	female	51	1	5	5	1	0	694	treillage
28	22	right	Ferdy	12:00:26	female	52	1	5	5	5	1	1713	dauphin
28	22	right	Ferdy	12:00:26	female	53	1	5	5	1	0	1056	orgueil
28	22	right	Ferdy	12:00:26	female	54	1	5	5	1	0	745	amorce
28	22	right	Ferdy	12:00:26	female	55	1	5	5	5	1	1165	cintre
28	22	right	Ferdy	12:00:26	female	56	1	5	5	1	0	2198	chameau
28	22	right	Ferdy	12:00:26	female	57	1	5	5	5	1	1348	bouton
28	22	right	Ferdy	12:00:26	female	58	1	5	5	1	0	2099	capeline
28	22	right	Ferdy	12:00:26	female	59	1	5	5	5	1	1762	lanière
28	22	right	Ferdy	12:00:26	female	60	5	1	1	1	1	993	honteur
28	22	right	Ferdy	12:00:26	female	61	1	5	5	5	1	1593	abêtir
28	22	right	Ferdy	12:00:26	female	62	1	5	5	5	1	1239	fenêtre
28	22	right	Ferdy	12:00:26	female	63	1	5	5	1	0	954	écureuil 
28	22	right	Ferdy	12:00:26	female	64	1	5	5	1	0	655	caddie
28	22	right	Ferdy	12:00:26	female	65	5	1	1	1	1	1957	détume
28	22	right	Ferdy	12:00:26	female	66	5	1	1	1	1	1905	oeuiller
28	22	right	Ferdy	12:00:26	female	67	1	5	5	1	0	649	balai
28	22	right	Ferdy	12:00:26	female	68	5	1	1	5	0	1112	prioche
28	22	right	Ferdy	12:00:26	female	69	1	5	5	1	0	672	vicelard
28	22	right	Ferdy	12:00:26	female	70	5	1	1	1	1	1129	joueux
28	22	right	Ferdy	12:00:26	female	71	5	1	1	5	0	1766	agire
28	22	right	Ferdy	12:00:26	female	72	1	5	5	1	0	1580	éventail
28	22	right	Ferdy	12:00:26	female	73	5	1	1	5	0	873	boutard
28	22	right	Ferdy	12:00:26	female	74	1	5	5	1	0	1840	panier
28	22	right	Ferdy	12:00:26	female	75	1	5	5	1	0	1837	citrouille
28	22	right	Ferdy	12:00:26	female	76	1	5	5	1	0	1359	bouilloire
28	22	right	Ferdy	12:00:26	female	77	5	1	1	5	0	782	parir
28	22	right	Ferdy	12:00:26	female	78	1	5	5	5	1	1632	remporter
28	22	right	Ferdy	12:00:26	female	79	5	1	1	1	1	805	procoreux
28	22	right	Ferdy	12:00:26	female	80	1	5	5	1	0	636	tanin
28	22	right	Ferdy	12:00:26	female	81	1	5	5	5	1	715	église
28	22	right	Ferdy	12:00:26	female	82	1	5	5	5	1	1586	indicible
28	22	right	Ferdy	12:00:26	female	83	5	1	1	1	1	1241	réporce
28	22	right	Ferdy	12:00:26	female	84	1	5	5	1	0	690	mignon
29	24	right	Nadia	13:53:10	female	1	1	5	5	5	1	1081	cheveux
29	24	right	Nadia	13:53:10	female	2	5	1	1	1	1	1338	soumon
29	24	right	Nadia	13:53:10	female	3	1	5	5	5	1	1384	cloche
29	24	right	Nadia	13:53:10	female	4	1	5	5	1	0	1060	fascine
29	24	right	Nadia	13:53:10	female	5	5	1	1	1	1	1121	huif
29	24	right	Nadia	13:53:10	female	6	1	5	5	1	0	1684	semonce
29	24	right	Nadia	13:53:10	female	7	1	5	5	1	0	1460	canoter 
29	24	right	Nadia	13:53:10	female	8	1	5	5	5	1	1285	infâme
29	24	right	Nadia	13:53:10	female	9	1	5	5	1	0	1204	fourmi
29	24	right	Nadia	13:53:10	female	10	1	5	5	1	0	1457	cadenas
29	24	right	Nadia	13:53:10	female	11	1	5	5	5	1	1694	racaille
29	24	right	Nadia	13:53:10	female	12	5	1	1	5	0	1722	pourcine
29	24	right	Nadia	13:53:10	female	13	1	5	5	1	0	1157	œillet
29	24	right	Nadia	13:53:10	female	14	5	1	1	1	1	1048	raplaner
29	24	right	Nadia	13:53:10	female	15	5	1	1	5	0	774	plaiser
29	24	right	Nadia	13:53:10	female	16	5	1	1	1	1	1012	cerveler
29	24	right	Nadia	13:53:10	female	17	5	1	1	1	1	1618	endifier
29	24	right	Nadia	13:53:10	female	18	5	1	1	1	1	1976	jamain
29	24	right	Nadia	13:53:10	female	19	1	5	5	5	1	1491	ennemi
29	24	right	Nadia	13:53:10	female	20	1	5	5	1	0	1298	pouce
29	24	right	Nadia	13:53:10	female	21	5	1	1	5	0	745	metter
29	24	right	Nadia	13:53:10	female	22	1	5	5	1	0	1144	fosse
29	24	right	Nadia	13:53:10	female	23	1	5	5	5	1	1421	inciter
29	24	right	Nadia	13:53:10	female	24	1	5	5	5	1	1512	salière
29	24	right	Nadia	13:53:10	female	25	1	5	5	1	0	775	fouet
29	24	right	Nadia	13:53:10	female	26	5	1	1	5	0	1215	cessure
29	24	right	Nadia	13:53:10	female	27	1	5	5	1	0	876	clouer
29	24	right	Nadia	13:53:10	female	28	1	5	5	1	0	939	mappemonde
29	24	right	Nadia	13:53:10	female	29	5	1	1	1	1	1123	gloque
29	24	right	Nadia	13:53:10	female	30	1	5	5	1	0	1862	lézard
29	24	right	Nadia	13:53:10	female	31	5	1	1	1	1	1230	sacher
29	24	right	Nadia	13:53:10	female	32	1	5	5	1	0	1454	nouer
29	24	right	Nadia	13:53:10	female	33	1	5	5	1	0	1034	occire
29	24	right	Nadia	13:53:10	female	34	5	1	1	1	1	1553	écouce
29	24	right	Nadia	13:53:10	female	35	5	1	1	5	0	795	osseaux
29	24	right	Nadia	13:53:10	female	36	5	1	1	5	0	884	rejoute
29	24	right	Nadia	13:53:10	female	37	1	5	5	1	0	905	escroc
29	24	right	Nadia	13:53:10	female	38	1	5	5	1	0	652	hache
29	24	right	Nadia	13:53:10	female	39	5	1	1	5	0	1182	parchance
29	24	right	Nadia	13:53:10	female	40	1	5	5	1	0	1000	pinceau
29	24	right	Nadia	13:53:10	female	41	1	5	5	5	1	616	poisson
29	24	right	Nadia	13:53:10	female	42	1	5	5	1	0	673	robinet
29	24	right	Nadia	13:53:10	female	43	1	5	5	1	0	1147	amadouer
29	24	right	Nadia	13:53:10	female	44	1	5	5	1	0	1432	peigne
29	24	right	Nadia	13:53:10	female	45	5	1	1	5	0	1103	retruire
29	24	right	Nadia	13:53:10	female	46	1	5	5	5	1	854	crayon
29	24	right	Nadia	13:53:10	female	47	5	1	1	1	1	809	sentuelle
29	24	right	Nadia	13:53:10	female	48	1	5	5	1	0	857	alourdir
29	24	right	Nadia	13:53:10	female	49	1	5	5	5	1	1262	marteau
29	24	right	Nadia	13:53:10	female	50	1	5	5	1	0	714	esquif
29	24	right	Nadia	13:53:10	female	51	1	5	5	1	0	1221	treillage
29	24	right	Nadia	13:53:10	female	52	1	5	5	1	0	723	dauphin
29	24	right	Nadia	13:53:10	female	53	1	5	5	1	0	952	orgueil
29	24	right	Nadia	13:53:10	female	54	1	5	5	1	0	878	amorce
29	24	right	Nadia	13:53:10	female	55	1	5	5	1	0	1064	cintre
29	24	right	Nadia	13:53:10	female	56	1	5	5	5	1	861	chameau
29	24	right	Nadia	13:53:10	female	57	1	5	5	5	1	648	bouton
29	24	right	Nadia	13:53:10	female	58	1	5	5	1	0	730	capeline
29	24	right	Nadia	13:53:10	female	59	1	5	5	1	0	669	lanière
29	24	right	Nadia	13:53:10	female	60	5	1	1	1	1	1017	honteur
29	24	right	Nadia	13:53:10	female	61	1	5	5	1	0	1245	abêtir
29	24	right	Nadia	13:53:10	female	62	1	5	5	5	1	723	fenêtre
29	24	right	Nadia	13:53:10	female	63	1	5	5	1	0	879	écureuil 
29	24	right	Nadia	13:53:10	female	64	1	5	5	1	0	1932	caddie
29	24	right	Nadia	13:53:10	female	65	5	1	1	1	1	1157	détume
29	24	right	Nadia	13:53:10	female	66	5	1	1	1	1	1042	oeuiller
29	24	right	Nadia	13:53:10	female	67	1	5	5	1	0	1231	balai
29	24	right	Nadia	13:53:10	female	68	5	1	1	5	0	1060	prioche
29	24	right	Nadia	13:53:10	female	69	1	5	5	1	0	1378	vicelard
29	24	right	Nadia	13:53:10	female	70	5	1	1	5	0	928	joueux
29	24	right	Nadia	13:53:10	female	71	5	1	1	5	0	861	agire
29	24	right	Nadia	13:53:10	female	72	1	5	5	1	0	968	éventail
29	24	right	Nadia	13:53:10	female	73	5	1	1	1	1	1421	boutard
29	24	right	Nadia	13:53:10	female	74	1	5	5	1	0	815	panier
29	24	right	Nadia	13:53:10	female	75	1	5	5	1	0	1015	citrouille
29	24	right	Nadia	13:53:10	female	76	1	5	5	1	0	1528	bouilloire
29	24	right	Nadia	13:53:10	female	77	5	1	1	5	0	1176	parir
29	24	right	Nadia	13:53:10	female	78	1	5	5	5	1	1069	remporter
29	24	right	Nadia	13:53:10	female	79	5	1	1	1	1	621	procoreux
29	24	right	Nadia	13:53:10	female	80	1	5	5	1	0	644	tanin
29	24	right	Nadia	13:53:10	female	81	1	5	5	5	1	791	église
29	24	right	Nadia	13:53:10	female	82	1	5	5	1	0	734	indicible
29	24	right	Nadia	13:53:10	female	83	5	1	1	1	1	950	réporce
29	24	right	Nadia	13:53:10	female	84	1	5	5	1	0	1183	mignon
30	18	right	Nadia	13:29:12	female	1	1	5	5	5	1	1799	cheveux
30	18	right	Nadia	13:29:12	female	2	5	1	1	1	1	1362	soumon
30	18	right	Nadia	13:29:12	female	3	1	5	5	1	0	1138	cloche
30	18	right	Nadia	13:29:12	female	4	1	5	5	1	0	1825	fascine
30	18	right	Nadia	13:29:12	female	5	5	1	1	1	1	1209	huif
30	18	right	Nadia	13:29:12	female	6	1	5	5	1	0	1123	semonce
30	18	right	Nadia	13:29:12	female	7	1	5	5	1	0	1225	canoter 
30	18	right	Nadia	13:29:12	female	8	1	5	5	1	0	871	infâme
30	18	right	Nadia	13:29:12	female	9	1	5	5	1	0	3241	fourmi
30	18	right	Nadia	13:29:12	female	10	1	5	5	1	0	1254	cadenas
30	18	right	Nadia	13:29:12	female	11	1	5	5	5	1	1903	racaille
30	18	right	Nadia	13:29:12	female	12	5	1	1	1	1	1229	pourcine
30	18	right	Nadia	13:29:12	female	13	1	5	5	1	0	1161	œillet
30	18	right	Nadia	13:29:12	female	14	5	1	1	1	1	1915	raplaner
30	18	right	Nadia	13:29:12	female	15	5	1	1	5	0	1275	plaiser
30	18	right	Nadia	13:29:12	female	16	5	1	1	1	1	1667	cerveler
30	18	right	Nadia	13:29:12	female	17	5	1	1	1	1	1659	endifier
30	18	right	Nadia	13:29:12	female	18	5	1	1	1	1	1281	jamain
30	18	right	Nadia	13:29:12	female	19	1	5	5	1	0	1049	ennemi
30	18	right	Nadia	13:29:12	female	20	1	5	5	5	1	1411	pouce
30	18	right	Nadia	13:29:12	female	21	5	1	1	5	0	1362	metter
30	18	right	Nadia	13:29:12	female	22	1	5	5	1	0	964	fosse
30	18	right	Nadia	13:29:12	female	23	1	5	5	1	0	1141	inciter
30	18	right	Nadia	13:29:12	female	24	1	5	5	1	0	1448	salière
