session	list	group	subject	age	sex	hand	assist	trial	file	stimulus	is_target	is_word	red	is_schwa	rt	response	correctness
1	D2	2	16	19	female	right	Other	1	n76_0_p4_1_mono.wav	le tenre	no	no	NA	no	3436	5	no
1	D2	2	16	19	female	right	Other	2	f33_0_p4_1_mono.wav	le rapport	no	yes	NA	no	2659	1	no
1	D2	2	16	19	female	right	Other	3	n86_1_p3_1_mono.wav	le repire	no	no	u	yes	1412	5	no
1	D2	2	16	19	female	right	Other	4	n73_0_p1_1_mono.wav	le buveau	no	no	NA	no	1535	1	yes
1	D2	2	16	19	female	right	Other	5	n50_0_p2_1_mono.wav	la rille	no	no	NA	no	1752	5	no
1	D2	2	16	19	female	right	Other	6	n55_0_p3_1_mono.wav	le nourd	no	no	NA	no	1736	5	no
1	D2	2	16	19	female	right	Other	7	n44_0_p1_1_mono.wav	la fanouille	no	no	NA	no	1504	5	no
1	D2	2	16	19	female	right	Other	8	t03_2_p2_2_mono.wav	la m'notte	yes	yes	r	yes	1274	5	yes
1	D2	2	16	19	female	right	Other	9	n54_0_p1_1_mono.wav	le garfait	no	no	NA	no	1180	1	yes
1	D2	2	16	19	female	right	Other	10	f58_0_p1_1_mono.wav	le service	no	yes	NA	no	1452	5	yes
1	D2	2	16	19	female	right	Other	11	n45_0_p3_1_mono.wav	la horgune	no	no	NA	no	1625	1	yes
1	D2	2	16	19	female	right	Other	12	n29_0_p2_1_mono.wav	le choint	no	no	NA	no	1055	1	yes
1	D2	2	16	19	female	right	Other	13	f38_0_p3_1_mono.wav	l'hôtel	no	yes	NA	no	1219	5	yes
1	D2	2	16	19	female	right	Other	14	n33_0_p2_1_mono.wav	la juisse	no	no	NA	no	1508	1	yes
1	D2	2	16	19	female	right	Other	15	f66_2_p2_1_mono.wav	le d'main	no	yes	r	yes	1178	5	yes
1	D2	2	16	19	female	right	Other	16	n62_0_p4_1_mono.wav	l'hosor	no	no	NA	no	1319	5	no
1	D2	2	16	19	female	right	Other	17	t17_2_p4_2_mono.wav	la s'moule	yes	yes	r	yes	1318	1	no
1	D2	2	16	19	female	right	Other	18	n32_0_p1_1_mono.wav	l'heule	no	no	NA	no	1533	1	yes
1	D2	2	16	19	female	right	Other	19	n09_1_p3_1_mono.wav	le femmeil	no	no	u	yes	1228	5	no
1	D2	2	16	19	female	right	Other	20	n78_0_p1_1_mono.wav	le jourlingue	no	no	NA	no	1331	1	yes
1	D2	2	16	19	female	right	Other	21	f09_0_p2_1_mono.wav	la pièce	no	yes	NA	no	1721	1	no
1	D2	2	16	19	female	right	Other	22	n05_2_p3_1_mono.wav	le g'gnoble	no	no	r	yes	1087	5	no
1	D2	2	16	19	female	right	Other	23	n30_0_p2_1_mono.wav	le pien	no	no	NA	no	1221	5	no
1	D2	2	16	19	female	right	Other	24	t06_2_p2_2_mono.wav	le r'cel	yes	yes	r	yes	2015	5	yes
1	D2	2	16	19	female	right	Other	25	n04_2_p4_1_mono.wav	la r'noise	no	no	r	yes	1183	1	yes
1	D2	2	16	19	female	right	Other	26	n70_0_p1_1_mono.wav	la nale	no	no	NA	no	1644	1	yes
1	D2	2	16	19	female	right	Other	27	f06_0_p2_1_mono.wav	le point	no	yes	NA	no	1039	5	yes
1	D2	2	16	19	female	right	Other	28	f21_0_p1_1_mono.wav	la horloge	no	yes	NA	no	1181	5	yes
1	D2	2	16	19	female	right	Other	29	t07_1_p2_2_mono.wav	la bedaine	yes	yes	u	yes	1414	5	yes
1	D2	2	16	19	female	right	Other	30	f07_0_p4_1_mono.wav	l'année	no	yes	NA	no	913	1	no
1	D2	2	16	19	female	right	Other	31	n82_0_p2_1_mono.wav	le sermite	no	no	NA	no	1293	1	yes
1	D2	2	16	19	female	right	Other	32	f56_0_p3_1_mono.wav	le pays	no	yes	NA	no	2229	5	yes
1	D2	2	16	19	female	right	Other	33	f36_0_p1_1_mono.wav	le type	no	yes	NA	no	1224	5	yes
1	D2	2	16	19	female	right	Other	34	f46_0_p1_1_mono.wav	la part	no	yes	NA	no	1135	5	yes
1	D2	2	16	19	female	right	Other	35	f40_0_p1_1_mono.wav	l'homme	no	yes	NA	no	978	1	no
1	D2	2	16	19	female	right	Other	36	f43_0_p4_1_mono.wav	la femme	no	yes	NA	no	1254	5	yes
1	D2	2	16	19	female	right	Other	37	n89_1_p3_1_mono.wav	le rebil	no	no	u	yes	1266	1	yes
1	D2	2	16	19	female	right	Other	38	n10_1_p1_1_mono.wav	le regot	no	no	u	yes	1447	5	no
1	D2	2	16	19	female	right	Other	39	t05_1_p2_2_mono.wav	le genièvre	yes	yes	u	yes	2264	5	yes
1	D2	2	16	19	female	right	Other	40	f26_0_p1_1_mono.wav	la ville	no	yes	NA	no	1180	5	yes
1	D2	2	16	19	female	right	Other	41	n83_0_p4_1_mono.wav	le sogueil	no	no	NA	no	1072	1	yes
1	D2	2	16	19	female	right	Other	42	n65_0_p4_1_mono.wav	la murte	no	no	NA	no	1240	1	yes
1	D2	2	16	19	female	right	Other	43	n16_2_p4_1_mono.wav	la p'doche	no	no	r	yes	1615	1	yes
1	D2	2	16	19	female	right	Other	44	f41_0_p4_1_mono.wav	la carte	no	yes	NA	no	1231	5	yes
1	D2	2	16	19	female	right	Other	45	n42_0_p1_1_mono.wav	l'endos	no	no	NA	no	1208	5	no
1	D2	2	16	19	female	right	Other	46	t22_1_p4_2_mono.wav	le renard	yes	yes	u	yes	1756	1	no
1	D2	2	16	19	female	right	Other	47	f65_2_p1_1_mono.wav	le r'paire	no	yes	r	yes	1300	5	yes
1	D2	2	16	19	female	right	Other	48	n49_0_p2_1_mono.wav	la questier	no	no	NA	no	1397	1	yes
1	D2	2	16	19	female	right	Other	49	n53_0_p1_1_mono.wav	le frolège	no	no	NA	no	1588	1	yes
1	D2	2	16	19	female	right	Other	50	f05_0_p2_1_mono.wav	le chien	no	yes	NA	no	1139	5	yes
1	D2	2	16	19	female	right	Other	51	f55_0_p4_1_mono.wav	le livre	no	yes	NA	no	2215	5	yes
1	D2	2	16	19	female	right	Other	52	f61_1_p3_1_mono.wav	le semi	no	yes	u	yes	1339	1	no
1	D2	2	16	19	female	right	Other	53	n68_0_p3_1_mono.wav	la moucle	no	no	NA	no	1152	1	yes
1	D2	2	16	19	female	right	Other	54	f44_0_p1_1_mono.wav	la lettre	no	yes	NA	no	1022	5	yes
1	D2	2	16	19	female	right	Other	55	n11_2_p4_1_mono.wav	le r'fant	no	no	r	yes	1182	1	yes
1	D2	2	16	19	female	right	Other	56	t02_2_p3_2_mono.wav	la l'vrette	yes	yes	r	yes	1335	5	yes
1	D2	2	16	19	female	right	Other	57	f59_0_p2_1_mono.wav	le soleil	no	yes	NA	no	995	5	yes
1	D2	2	16	19	female	right	Other	58	f54_0_p1_1_mono.wav	le journal	no	yes	NA	no	1270	5	yes
1	D2	2	16	19	female	right	Other	59	f13_0_p4_1_mono.wav	le papier	no	yes	NA	no	1147	1	no
1	D2	2	16	19	female	right	Other	60	n72_0_p3_1_mono.wav	la teune	no	no	NA	no	1648	1	yes
1	D2	2	16	19	female	right	Other	61	n39_0_p2_1_mono.wav	le grat	no	no	NA	no	1409	1	yes
1	D2	2	16	19	female	right	Other	62	f20_0_p3_1_mono.wav	la famille	no	yes	NA	no	1031	5	yes
1	D2	2	16	19	female	right	Other	63	f50_0_p2_1_mono.wav	le café	no	yes	NA	no	1010	5	yes
1	D2	2	16	19	female	right	Other	64	t19_1_p3_2_mono.wav	le chenil	yes	yes	u	yes	1653	1	no
1	D2	2	16	19	female	right	Other	65	n24_2_p4_1_mono.wav	le f'quon	no	no	r	yes	3878	5	no
1	D2	2	16	19	female	right	Other	66	f18_0_p3_1_mono.wav	l'enfant	no	yes	NA	no	1909	1	no
1	D2	2	16	19	female	right	Other	67	n60_0_p1_1_mono.wav	le tinge	no	no	NA	no	1544	1	yes
1	D2	2	16	19	female	right	Other	68	f28_0_p4_1_mono.wav	le frère	no	yes	NA	no	1051	5	yes
1	D2	2	16	19	female	right	Other	69	f64_2_p1_1_mono.wav	le m'lon	no	yes	r	yes	1093	1	no
1	D2	2	16	19	female	right	Other	70	n31_0_p1_1_mono.wav	l'annue	no	no	NA	no	1602	5	no
1	D2	2	16	19	female	right	Other	71	n48_0_p2_1_mono.wav	la mainou	no	no	NA	no	1307	1	yes
1	D2	2	16	19	female	right	Other	72	f39_0_p1_1_mono.wav	l'histoire	no	yes	NA	no	1158	1	no
1	D2	2	16	19	female	right	Other	73	t21_1_p1_2_mono.wav	le recul	yes	yes	u	yes	994	5	yes
1	D2	2	16	19	female	right	Other	74	n13_1_p2_1_mono.wav	le seblème	no	no	u	yes	1249	5	no
1	D2	2	16	19	female	right	Other	75	n35_0_p3_1_mono.wav	le missien	no	no	NA	no	3556	1	yes
1	D2	2	16	19	female	right	Other	76	f30_0_p4_1_mono.wav	le garçon	no	yes	NA	no	895	5	yes
1	D2	2	16	19	female	right	Other	77	n69_0_p1_1_mono.wav	la madaine	no	no	NA	no	1050	1	yes
1	D2	2	16	19	female	right	Other	78	n38_0_p2_1_mono.wav	le suir	no	no	NA	no	1066	1	yes
1	D2	2	16	19	female	right	Other	79	n47_0_p4_1_mono.wav	la nure	no	no	NA	no	1212	1	yes
1	D2	2	16	19	female	right	Other	80	n91_2_p3_1_mono.wav	le r'lide	no	no	r	yes	1074	1	yes
1	D2	2	16	19	female	right	Other	81	n64_0_p3_1_mono.wav	l'oune	no	no	NA	no	1157	5	no
1	D2	2	16	19	female	right	Other	82	n20_1_p1_1_mono.wav	le mejet	no	no	u	yes	1267	5	no
1	D2	2	16	19	female	right	Other	83	n22_1_p4_1_mono.wav	le relogue	no	no	u	yes	988	1	yes
1	D2	2	16	19	female	right	Other	84	f04_0_p2_1_mono.wav	la soeur	no	yes	NA	no	1117	5	yes
1	D2	2	16	19	female	right	Other	85	n61_0_p3_1_mono.wav	l'apure	no	no	NA	no	1047	5	no
1	D2	2	16	19	female	right	Other	86	n66_0_p2_1_mono.wav	la cance	no	no	NA	no	1022	5	no
1	D2	2	16	19	female	right	Other	87	f14_0_p2_1_mono.wav	le soir	no	yes	NA	no	1063	5	yes
1	D2	2	16	19	female	right	Other	88	n51_0_p4_1_mono.wav	le caffant	no	no	NA	no	1444	1	yes
1	D2	2	16	19	female	right	Other	89	f08_0_p4_1_mono.wav	l'heure	no	yes	NA	no	1283	5	yes
1	D2	2	16	19	female	right	Other	90	n81_0_p1_1_mono.wav	le croux	no	no	NA	no	1421	5	no
1	D2	2	16	19	female	right	Other	91	t09_2_p2_2_mono.wav	le f'nouil	yes	yes	r	yes	1067	1	no
1	D2	2	16	19	female	right	Other	92	f15_0_p3_1_mono.wav	le train	no	yes	NA	no	1273	1	no
1	D2	2	16	19	female	right	Other	93	f10_0_p2_1_mono.wav	le chat	no	yes	NA	no	1148	1	no
1	D2	2	16	19	female	right	Other	94	n95_2_p4_1_mono.wav	le r'pus	no	no	r	yes	1476	1	yes
1	D2	2	16	19	female	right	Other	95	f70_2_p2_1_mono.wav	le s'mestre	no	yes	r	yes	1428	5	yes
1	D2	2	16	19	female	right	Other	96	n25_0_p1_1_mono.wav	l'incre	no	no	NA	no	1309	1	yes
1	D2	2	16	19	female	right	Other	97	f62_1_p1_1_mono.wav	le ressort	no	yes	u	yes	1613	1	no
1	D2	2	16	19	female	right	Other	98	t16_1_p1_2_mono.wav	la peluche	yes	yes	u	yes	928	5	yes
1	D2	2	16	19	female	right	Other	99	f32_0_p4_1_mono.wav	le moment	no	yes	NA	no	828	5	yes
1	D2	2	16	19	female	right	Other	100	f02_0_p2_1_mono.wav	la main	no	yes	NA	no	833	1	no
1	D2	2	16	19	female	right	Other	101	f63_1_p2_1_mono.wav	le cheval	no	yes	u	yes	1385	1	no
1	D2	2	16	19	female	right	Other	102	f11_0_p2_1_mono.wav	le milieu	no	yes	NA	no	1190	1	no
1	D2	2	16	19	female	right	Other	103	f17_0_p4_1_mono.wav	l'accord	no	yes	NA	no	972	5	yes
1	D2	2	16	19	female	right	Other	104	t15_1_p3_2_mono.wav	la pelouse	yes	yes	u	yes	1178	5	yes
1	D2	2	16	19	female	right	Other	105	n06_1_p2_1_mono.wav	le retal	no	no	u	yes	1232	1	yes
1	D2	2	16	19	female	right	Other	106	n18_1_p3_1_mono.wav	le reclin	no	no	u	yes	2392	1	yes
1	D2	2	16	19	female	right	Other	107	f52_0_p2_1_mono.wav	le genre	no	yes	NA	no	1471	5	yes
1	D2	2	16	19	female	right	Other	108	n14_2_p2_1_mono.wav	la ch'maille	no	no	r	yes	1066	1	yes
1	D2	2	16	19	female	right	Other	109	n75_0_p2_1_mono.wav	le fège	no	no	NA	no	1359	1	yes
1	D2	2	16	19	female	right	Other	110	f53_0_p2_1_mono.wav	le groupe	no	yes	NA	no	1229	5	yes
1	D2	2	16	19	female	right	Other	111	n63_0_p1_1_mono.wav	la histienne	no	no	NA	no	1020	1	yes
1	D2	2	16	19	female	right	Other	112	n77_0_p4_1_mono.wav	le bruc	no	no	NA	no	1869	1	yes
1	D2	2	16	19	female	right	Other	113	n59_0_p4_1_mono.wav	le solti	no	no	NA	no	1278	5	no
1	D2	2	16	19	female	right	Other	114	t18_1_p2_2_mono.wav	le reflet	yes	yes	u	yes	1722	1	no
1	D2	2	16	19	female	right	Other	115	f34_0_p1_1_mono.wav	le silence	no	yes	NA	no	1342	5	yes
1	D2	2	16	19	female	right	Other	116	n37_0_p4_1_mono.wav	le padiot	no	no	NA	no	1080	5	no
1	D2	2	16	19	female	right	Other	117	f67_1_p3_1_mono.wav	le refuge	no	yes	u	yes	1106	5	yes
1	D2	2	16	19	female	right	Other	118	n28_0_p1_1_mono.wav	la veure	no	no	NA	no	891	1	yes
1	D2	2	16	19	female	right	Other	119	f42_0_p1_1_mono.wav	la chance	no	yes	NA	no	773	5	yes
1	D2	2	16	19	female	right	Other	120	n58_0_p1_1_mono.wav	la siture	no	no	NA	no	1255	1	yes
1	D2	2	16	19	female	right	Other	121	f45_0_p2_1_mono.wav	la madame	no	yes	NA	no	1021	5	yes
1	D2	2	16	19	female	right	Other	122	f31_0_p3_1_mono.wav	le jour	no	yes	NA	no	1320	5	yes
1	D2	2	16	19	female	right	Other	123	n26_0_p4_1_mono.wav	la jun	no	no	NA	no	906	1	yes
1	D2	2	16	19	female	right	Other	124	f01_0_p4_1_mono.wav	l'oncle	no	yes	NA	no	1076	1	no
1	D2	2	16	19	female	right	Other	125	t23_2_p2_2_mono.wav	la s'cousse	yes	yes	r	yes	1275	1	no
1	D2	2	16	19	female	right	Other	126	f19_0_p2_1_mono.wav	l'idée	no	yes	NA	no	1448	5	yes
1	D2	2	16	19	female	right	Other	127	n52_0_p2_1_mono.wav	le drère	no	no	NA	no	3645	5	no
1	D2	2	16	19	female	right	Other	128	f51_0_p3_1_mono.wav	le chef	no	yes	NA	no	1263	5	yes
1	D2	2	16	19	female	right	Other	129	n57_0_p1_1_mono.wav	le ratime	no	no	NA	no	1585	1	yes
1	D2	2	16	19	female	right	Other	130	n96_2_p1_1_mono.wav	la r'fare	no	no	r	yes	2468	1	yes
1	D2	2	16	19	female	right	Other	131	n01_2_p1_1_mono.wav	la b'rasse	no	no	r	yes	1264	1	yes
1	D2	2	16	19	female	right	Other	132	f69_1_p4_1_mono.wav	le registre	no	yes	u	yes	811	5	yes
1	D2	2	16	19	female	right	Other	133	n56_0_p3_1_mono.wav	le mossu	no	no	NA	no	1550	1	yes
1	D2	2	16	19	female	right	Other	134	n41_0_p2_1_mono.wav	l'agime	no	no	NA	no	2850	5	no
1	D2	2	16	19	female	right	Other	135	f37_0_p2_1_mono.wav	l'amour	no	yes	NA	no	1532	5	yes
1	D2	2	16	19	female	right	Other	136	f03_0_p4_1_mono.wav	la nuit	no	yes	NA	no	1449	1	no
1	D2	2	16	19	female	right	Other	137	f12_0_p4_1_mono.wav	le monde	no	yes	NA	no	1108	5	yes
1	D2	2	16	19	female	right	Other	138	n92_1_p2_1_mono.wav	le regure	no	no	u	yes	1142	5	no
1	D2	2	16	19	female	right	Other	139	n94_2_p1_1_mono.wav	le s'questre	no	no	r	yes	2402	5	no
1	D2	2	16	19	female	right	Other	140	n19_1_p3_1_mono.wav	le chedel	no	no	u	yes	1769	1	yes
1	D2	2	16	19	female	right	Other	141	f68_2_p4_1_mono.wav	le r'tard	no	yes	r	yes	1470	5	yes
1	D2	2	16	19	female	right	Other	142	t01_2_p4_2_mono.wav	la b'lette	yes	yes	r	yes	2251	1	no
1	D2	2	16	19	female	right	Other	143	n71_0_p3_1_mono.wav	la foite	no	no	NA	no	1749	1	yes
1	D2	2	16	19	female	right	Other	144	n40_0_p3_1_mono.wav	l'équise	no	no	NA	no	1095	1	yes
1	D2	2	16	19	female	right	Other	145	f60_0_p1_1_mono.wav	le tour	no	yes	NA	no	1320	5	yes
1	D2	2	16	19	female	right	Other	146	n34_0_p3_1_mono.wav	le teau	no	no	NA	no	1175	5	no
1	D2	2	16	19	female	right	Other	147	f23_0_p1_1_mono.wav	la mère	no	yes	NA	no	1176	5	yes
1	D2	2	16	19	female	right	Other	148	t10_2_p2_2_mono.wav	le r'bond	yes	yes	r	yes	1213	1	no
1	D2	2	16	19	female	right	Other	149	f72_2_p4_1_mono.wav	la r'vanche	no	yes	r	yes	1877	1	no
1	D2	2	16	19	female	right	Other	150	f22_0_p3_1_mono.wav	la journée	no	yes	NA	no	1134	5	yes
1	D2	2	16	19	female	right	Other	151	f16_0_p4_1_mono.wav	l'école	no	yes	NA	no	1258	5	yes
1	D2	2	16	19	female	right	Other	152	n80_0_p2_1_mono.wav	le péhut	no	no	NA	no	1684	1	yes
1	D2	2	16	19	female	right	Other	153	n36_0_p1_1_mono.wav	le linde	no	no	NA	no	1209	5	no
1	D2	2	16	19	female	right	Other	154	n03_2_p2_1_mono.wav	la m'quisse	no	no	r	yes	1256	1	yes
1	D2	2	16	19	female	right	Other	155	n27_0_p2_1_mono.wav	la tuit	no	no	NA	no	1199	5	no
1	D2	2	16	19	female	right	Other	156	f35_0_p4_1_mono.wav	le soldat	no	yes	NA	no	1259	1	no
1	D2	2	16	19	female	right	Other	157	f29_0_p3_1_mono.wav	le fromage	no	yes	NA	no	1224	5	yes
1	D2	2	16	19	female	right	Other	158	f47_0_p2_1_mono.wav	la route	no	yes	NA	no	1797	5	yes
1	D2	2	16	19	female	right	Other	159	f25_0_p3_1_mono.wav	la question	no	yes	NA	no	1384	5	yes
1	D2	2	16	19	female	right	Other	160	n88_1_p2_1_mono.wav	le messin	no	no	u	yes	1216	1	yes
1	D2	2	16	19	female	right	Other	161	f49_0_p2_1_mono.wav	le bureau	no	yes	NA	no	1982	5	yes
1	D2	2	16	19	female	right	Other	162	n46_0_p1_1_mono.wav	la jourcie	no	no	NA	no	1426	5	no
1	D2	2	16	19	female	right	Other	163	f27_0_p1_1_mono.wav	le cadeau	no	yes	NA	no	990	5	yes
1	D2	2	16	19	female	right	Other	164	n93_1_p3_1_mono.wav	le revercle	no	no	u	yes	1216	1	yes
1	D2	2	16	19	female	right	Other	165	n02_2_p2_1_mono.wav	la l'druche	no	no	r	yes	1775	5	no
1	D2	2	16	19	female	right	Other	166	t24_2_p1_2_mono.wav	le f'san	yes	yes	r	yes	1111	5	yes
1	D2	2	16	19	female	right	Other	167	n67_0_p2_1_mono.wav	la janne	no	no	NA	no	1295	1	yes
1	D2	2	16	19	female	right	Other	168	n87_1_p3_1_mono.wav	le chenache	no	no	u	yes	1583	1	yes
1	D2	2	16	19	female	right	Other	169	t11_1_p3_2_mono.wav	le remous	yes	yes	u	yes	1189	5	yes
1	D2	2	16	19	female	right	Other	170	f48_0_p3_1_mono.wav	la scène	no	yes	NA	no	1717	1	no
1	D2	2	16	19	female	right	Other	171	n74_0_p1_1_mono.wav	le camont	no	no	NA	no	1581	1	yes
1	D2	2	16	19	female	right	Other	172	f57_0_p2_1_mono.wav	le prix	no	yes	NA	no	1283	1	no
1	D2	2	16	19	female	right	Other	173	n08_2_p2_1_mono.wav	la s'cotte	no	no	r	yes	1075	5	no
1	D2	2	16	19	female	right	Other	174	n90_2_p2_1_mono.wav	le d'sseau	no	no	r	yes	1310	5	no
1	D2	2	16	19	female	right	Other	175	n23_1_p2_1_mono.wav	la sepave	no	no	u	yes	1254	1	yes
1	D2	2	16	19	female	right	Other	176	t20_1_p3_2_mono.wav	le meneau	yes	yes	u	yes	1656	5	yes
1	D2	2	16	19	female	right	Other	177	n15_2_p3_1_mono.wav	la p'ssade	no	no	r	yes	1775	1	yes
1	D2	2	16	19	female	right	Other	178	n85_2_p1_1_mono.wav	le s'funt	no	no	r	yes	1155	5	no
1	D2	2	16	19	female	right	Other	179	t04_1_p1_2_mono.wav	la reliure	yes	yes	u	yes	2655	1	no
1	D2	2	16	19	female	right	Other	180	n79_0_p4_1_mono.wav	le tavre	no	no	NA	no	1548	1	yes
1	D2	2	16	19	female	right	Other	181	t08_1_p3_2_mono.wav	la semelle	yes	yes	u	yes	1473	5	yes
1	D2	2	16	19	female	right	Other	182	n07_1_p2_1_mono.wav	la bechesse	no	no	u	yes	2353	5	no
1	D2	2	16	19	female	right	Other	183	n21_2_p1_1_mono.wav	le r'pèze	no	no	r	yes	1485	1	yes
1	D2	2	16	19	female	right	Other	184	t13_2_p3_2_mono.wav	le s'vrage	yes	yes	r	yes	1262	5	yes
1	D2	2	16	19	female	right	Other	185	n12_1_p1_1_mono.wav	le rechant	no	no	u	yes	3651	1	yes
1	D2	2	16	19	female	right	Other	186	t14_2_p3_2_mono.wav	la ch'nille	yes	yes	r	yes	1315	1	no
1	D2	2	16	19	female	right	Other	187	n43_0_p2_1_mono.wav	l'ivée	no	no	NA	no	1778	1	yes
1	D2	2	16	19	female	right	Other	188	t12_2_p4_2_mono.wav	le r'quin	yes	yes	r	yes	886	5	yes
1	D2	2	16	19	female	right	Other	189	f24_0_p2_1_mono.wav	la maison	no	yes	NA	no	865	5	yes
1	D2	2	16	19	female	right	Other	190	n17_1_p2_1_mono.wav	la segence	no	no	u	yes	1060	1	yes
1	D2	2	16	19	female	right	Other	191	n84_0_p4_1_mono.wav	le vort	no	no	NA	no	1499	1	yes
1	D2	2	16	19	female	right	Other	192	f71_1_p2_1_mono.wav	le record	no	yes	u	yes	1087	1	no
1	A1	1	1	22	female	right	Other	1	f66_2_p2_1_mono.wav	le d'main	no	yes	r	yes	2248	5	yes
1	A1	1	1	22	female	right	Other	2	n75_0_p2_1_mono.wav	le fège	no	no	NA	no	1647	5	no
1	A1	1	1	22	female	right	Other	3	f34_0_p1_1_mono.wav	le silence	no	yes	NA	no	1405	5	yes
1	A1	1	1	22	female	right	Other	4	f72_1_p1_1_mono.wav	la revanche	no	yes	u	yes	1379	5	yes
1	A1	1	1	22	female	right	Other	5	n29_0_p2_1_mono.wav	le choint	no	no	NA	no	1816	5	no
1	A1	1	1	22	female	right	Other	6	f67_1_p3_1_mono.wav	le refuge	no	yes	u	yes	1855	5	yes
1	A1	1	1	22	female	right	Other	7	f32_0_p4_1_mono.wav	le moment	no	yes	NA	no	1673	5	yes
1	A1	1	1	22	female	right	Other	8	n73_0_p1_1_mono.wav	le buveau	no	no	NA	no	2096	1	yes
1	A1	1	1	22	female	right	Other	9	n03_1_p1_1_mono.wav	la mequisse	no	no	u	yes	2008	1	yes
1	A1	1	1	22	female	right	Other	10	f50_0_p2_1_mono.wav	le café	no	yes	NA	no	1429	1	no
1	A1	1	1	22	female	right	Other	11	f30_0_p4_1_mono.wav	le garçon	no	yes	NA	no	890	5	yes
1	A1	1	1	22	female	right	Other	12	n58_0_p1_1_mono.wav	la siture	no	no	NA	no	1938	5	no
1	A1	1	1	22	female	right	Other	13	n22_2_p3_1_mono.wav	le r'logue	no	no	r	yes	1221	1	yes
1	A1	1	1	22	female	right	Other	14	n74_0_p1_1_mono.wav	le camont	no	no	NA	no	1212	5	no
1	A1	1	1	22	female	right	Other	15	f61_1_p3_1_mono.wav	le semi	no	yes	u	yes	1204	5	yes
1	A1	1	1	22	female	right	Other	16	n31_0_p1_1_mono.wav	l'annue	no	no	NA	no	1422	5	no
1	A1	1	1	22	female	right	Other	17	n01_2_p1_1_mono.wav	la b'rasse	no	no	r	yes	1135	1	yes
1	A1	1	1	22	female	right	Other	18	f62_1_p1_1_mono.wav	le ressort	no	yes	u	yes	1587	1	no
1	A1	1	1	22	female	right	Other	19	n96_1_p2_1_mono.wav	la refare	no	no	u	yes	1562	1	yes
1	A1	1	1	22	female	right	Other	20	n70_0_p1_1_mono.wav	la nale	no	no	NA	no	1950	5	no
1	A1	1	1	22	female	right	Other	21	f04_0_p2_1_mono.wav	la soeur	no	yes	NA	no	1105	5	yes
1	A1	1	1	22	female	right	Other	22	n89_1_p3_1_mono.wav	le rebil	no	no	u	yes	1630	1	yes
1	A1	1	1	22	female	right	Other	23	n60_0_p1_1_mono.wav	le tinge	no	no	NA	no	1579	5	no
1	A1	1	1	22	female	right	Other	24	t22_1_p4_2_mono.wav	le renard	yes	yes	u	yes	1622	5	yes
1	A1	1	1	22	female	right	Other	25	n91_2_p3_1_mono.wav	le r'lide	no	no	r	yes	2237	1	yes
1	A1	1	1	22	female	right	Other	26	f71_2_p1_1_mono.wav	le r'cord	no	yes	r	yes	1801	5	yes
1	A1	1	1	22	female	right	Other	27	f03_0_p4_1_mono.wav	la nuit	no	yes	NA	no	1268	1	no
1	A1	1	1	22	female	right	Other	28	n05_1_p4_1_mono.wav	le gegnoble	no	no	u	yes	1724	1	yes
1	A1	1	1	22	female	right	Other	29	n49_0_p2_1_mono.wav	la questier	no	no	NA	no	1408	1	yes
1	A1	1	1	22	female	right	Other	30	n27_0_p2_1_mono.wav	la tuit	no	no	NA	no	1194	5	no
1	A1	1	1	22	female	right	Other	31	n39_0_p2_1_mono.wav	le grat	no	no	NA	no	1969	1	yes
1	A1	1	1	22	female	right	Other	32	f19_0_p2_1_mono.wav	l'idée	no	yes	NA	no	1803	5	yes
1	A1	1	1	22	female	right	Other	33	n02_2_p2_1_mono.wav	la l'druche	no	no	r	yes	1631	5	no
1	A1	1	1	22	female	right	Other	34	f41_0_p4_1_mono.wav	la carte	no	yes	NA	no	1194	5	yes
1	A1	1	1	22	female	right	Other	35	f47_0_p2_1_mono.wav	la route	no	yes	NA	no	1840	5	yes
1	A1	1	1	22	female	right	Other	36	n09_2_p1_1_mono.wav	le f'mmeil	no	no	r	yes	1450	5	no
1	A1	1	1	22	female	right	Other	37	t11_2_p3_2_mono.wav	le r'mous	yes	yes	r	yes	1681	5	yes
1	A1	1	1	22	female	right	Other	38	n90_2_p2_1_mono.wav	le d'sseau	no	no	r	yes	1159	1	yes
1	A1	1	1	22	female	right	Other	39	f01_0_p4_1_mono.wav	l'oncle	no	yes	NA	no	1181	1	no
1	A1	1	1	22	female	right	Other	40	f44_0_p1_1_mono.wav	la lettre	no	yes	NA	no	1273	5	yes
1	A1	1	1	22	female	right	Other	41	n33_0_p2_1_mono.wav	la juisse	no	no	NA	no	1490	5	no
1	A1	1	1	22	female	right	Other	42	n44_0_p1_1_mono.wav	la fanouille	no	no	NA	no	1261	5	no
1	A1	1	1	22	female	right	Other	43	n65_0_p4_1_mono.wav	la murte	no	no	NA	no	1253	1	yes
1	A1	1	1	22	female	right	Other	44	n62_0_p4_1_mono.wav	l'hosor	no	no	NA	no	1596	1	yes
1	A1	1	1	22	female	right	Other	45	f70_1_p1_1_mono.wav	le semestre	no	yes	u	yes	1780	1	no
1	A1	1	1	22	female	right	Other	46	t21_2_p3_2_mono.wav	le r'cul	yes	yes	r	yes	1480	5	yes
1	A1	1	1	22	female	right	Other	47	n69_0_p1_1_mono.wav	la madaine	no	no	NA	no	2259	1	yes
1	A1	1	1	22	female	right	Other	48	f55_0_p4_1_mono.wav	le livre	no	yes	NA	no	1416	5	yes
1	A1	1	1	22	female	right	Other	49	f27_0_p1_1_mono.wav	le cadeau	no	yes	NA	no	1184	5	yes
1	A1	1	1	22	female	right	Other	50	n50_0_p2_1_mono.wav	la rille	no	no	NA	no	1382	1	yes
1	A1	1	1	22	female	right	Other	51	f45_0_p2_1_mono.wav	la madame	no	yes	NA	no	953	5	yes
1	A1	1	1	22	female	right	Other	52	n20_1_p1_1_mono.wav	le mejet	no	no	u	yes	1237	5	no
1	A1	1	1	22	female	right	Other	53	n35_0_p3_1_mono.wav	le missien	no	no	NA	no	1393	1	yes
1	A1	1	1	22	female	right	Other	54	n19_1_p3_1_mono.wav	le chedel	no	no	u	yes	1423	1	yes
1	A1	1	1	22	female	right	Other	55	n63_0_p1_1_mono.wav	la histienne	no	no	NA	no	1335	1	yes
1	A1	1	1	22	female	right	Other	56	f18_0_p3_1_mono.wav	l'enfant	no	yes	NA	no	1976	1	no
1	A1	1	1	22	female	right	Other	57	n64_0_p3_1_mono.wav	l'oune	no	no	NA	no	1593	1	yes
1	A1	1	1	22	female	right	Other	58	n52_0_p2_1_mono.wav	le drère	no	no	NA	no	1292	5	no
1	A1	1	1	22	female	right	Other	59	n11_1_p4_1_mono.wav	le refant	no	no	u	yes	1325	5	no
1	A1	1	1	22	female	right	Other	60	n61_0_p3_1_mono.wav	l'apure	no	no	NA	no	1953	5	no
1	A1	1	1	22	female	right	Other	61	t24_1_p2_2_mono.wav	le faisan	yes	yes	u	yes	1133	5	yes
1	A1	1	1	22	female	right	Other	62	f57_0_p2_1_mono.wav	le prix	no	yes	NA	no	1257	5	yes
1	A1	1	1	22	female	right	Other	63	f53_0_p2_1_mono.wav	le groupe	no	yes	NA	no	1171	5	yes
1	A1	1	1	22	female	right	Other	64	n86_1_p3_1_mono.wav	le repire	no	no	u	yes	1553	1	yes
1	A1	1	1	22	female	right	Other	65	n76_0_p4_1_mono.wav	le tenre	no	no	NA	no	1856	5	no
1	A1	1	1	22	female	right	Other	66	t15_2_p2_2_mono.wav	la p'louse	yes	yes	r	yes	1102	5	yes
1	A1	1	1	22	female	right	Other	67	n17_2_p4_1_mono.wav	la s'gence	no	no	r	yes	2532	5	no
1	A1	1	1	22	female	right	Other	68	t10_1_p1_2_mono.wav	le rebond	yes	yes	u	yes	1595	5	yes
1	A1	1	1	22	female	right	Other	69	n34_0_p3_1_mono.wav	le teau	no	no	NA	no	1262	5	no
1	A1	1	1	22	female	right	Other	70	f40_0_p1_1_mono.wav	l'homme	no	yes	NA	no	1121	1	no
1	A1	1	1	22	female	right	Other	71	f58_0_p1_1_mono.wav	le service	no	yes	NA	no	1514	5	yes
1	A1	1	1	22	female	right	Other	72	n13_1_p2_1_mono.wav	le seblème	no	no	u	yes	1997	1	yes
1	A1	1	1	22	female	right	Other	73	n94_1_p2_1_mono.wav	le sequestre	no	no	u	yes	2219	1	yes
1	A1	1	1	22	female	right	Other	74	n57_0_p1_1_mono.wav	le ratime	no	no	NA	no	1482	1	yes
1	A1	1	1	22	female	right	Other	75	n77_0_p4_1_mono.wav	le bruc	no	no	NA	no	1373	5	no
1	A1	1	1	22	female	right	Other	76	f24_0_p2_1_mono.wav	la maison	no	yes	NA	no	1065	5	yes
1	A1	1	1	22	female	right	Other	77	n45_0_p3_1_mono.wav	la horgune	no	no	NA	no	1055	1	yes
1	A1	1	1	22	female	right	Other	78	t04_1_p1_2_mono.wav	la reliure	yes	yes	u	yes	2851	5	yes
1	A1	1	1	22	female	right	Other	79	f31_0_p3_1_mono.wav	le jour	no	yes	NA	no	1452	5	yes
1	A1	1	1	22	female	right	Other	80	n24_2_p4_1_mono.wav	le f'quon	no	no	r	yes	1124	1	yes
1	A1	1	1	22	female	right	Other	81	n40_0_p3_1_mono.wav	l'équise	no	no	NA	no	2759	1	yes
1	A1	1	1	22	female	right	Other	82	n59_0_p4_1_mono.wav	le solti	no	no	NA	no	1520	1	yes
1	A1	1	1	22	female	right	Other	83	t16_1_p1_2_mono.wav	la peluche	yes	yes	u	yes	1115	5	yes
1	A1	1	1	22	female	right	Other	84	f13_0_p4_1_mono.wav	le papier	no	yes	NA	no	1250	5	yes
1	A1	1	1	22	female	right	Other	85	f22_0_p3_1_mono.wav	la journée	no	yes	NA	no	1117	5	yes
1	A1	1	1	22	female	right	Other	86	f59_0_p2_1_mono.wav	le soleil	no	yes	NA	no	1128	5	yes
1	A1	1	1	22	female	right	Other	87	f42_0_p1_1_mono.wav	la chance	no	yes	NA	no	1048	5	yes
1	A1	1	1	22	female	right	Other	88	n80_0_p2_1_mono.wav	le péhut	no	no	NA	no	2172	5	no
1	A1	1	1	22	female	right	Other	89	n67_0_p2_1_mono.wav	la janne	no	no	NA	no	1228	1	yes
1	A1	1	1	22	female	right	Other	90	f54_0_p1_1_mono.wav	le journal	no	yes	NA	no	1473	5	yes
1	A1	1	1	22	female	right	Other	91	f02_0_p2_1_mono.wav	la main	no	yes	NA	no	1128	5	yes
1	A1	1	1	22	female	right	Other	92	t14_1_p2_2_mono.wav	la chenille	yes	yes	u	yes	1283	5	yes
1	A1	1	1	22	female	right	Other	93	n42_0_p1_1_mono.wav	l'endos	no	no	NA	no	1046	1	yes
1	A1	1	1	22	female	right	Other	94	f29_0_p3_1_mono.wav	le fromage	no	yes	NA	no	998	5	yes
1	A1	1	1	22	female	right	Other	95	n38_0_p2_1_mono.wav	le suir	no	no	NA	no	2019	5	no
1	A1	1	1	22	female	right	Other	96	f65_2_p1_1_mono.wav	le r'paire	no	yes	r	yes	1744	1	no
1	A1	1	1	22	female	right	Other	97	f56_0_p3_1_mono.wav	le pays	no	yes	NA	no	1633	1	no
1	A1	1	1	22	female	right	Other	98	n06_1_p2_1_mono.wav	le retal	no	no	u	yes	1721	1	yes
1	A1	1	1	22	female	right	Other	99	f21_0_p1_1_mono.wav	la horloge	no	yes	NA	no	2092	1	no
1	A1	1	1	22	female	right	Other	100	t23_2_p2_2_mono.wav	la s'cousse	yes	yes	r	yes	1095	5	yes
1	A1	1	1	22	female	right	Other	101	f46_0_p1_1_mono.wav	la part	no	yes	NA	no	1523	5	yes
1	A1	1	1	22	female	right	Other	102	n87_1_p3_1_mono.wav	le chenache	no	no	u	yes	1390	5	no
1	A1	1	1	22	female	right	Other	103	n43_0_p2_1_mono.wav	l'ivée	no	no	NA	no	1671	1	yes
1	A1	1	1	22	female	right	Other	104	n71_0_p3_1_mono.wav	la foite	no	no	NA	no	1411	5	no
1	A1	1	1	22	female	right	Other	105	n36_0_p1_1_mono.wav	le linde	no	no	NA	no	1232	1	yes
1	A1	1	1	22	female	right	Other	106	n78_0_p1_1_mono.wav	le jourlingue	no	no	NA	no	1810	1	yes
1	A1	1	1	22	female	right	Other	107	f23_0_p1_1_mono.wav	la mère	no	yes	NA	no	1205	5	yes
1	A1	1	1	22	female	right	Other	108	f09_0_p2_1_mono.wav	la pièce	no	yes	NA	no	2582	5	yes
1	A1	1	1	22	female	right	Other	109	f36_0_p1_1_mono.wav	le type	no	yes	NA	no	1239	1	no
1	A1	1	1	22	female	right	Other	110	f38_0_p3_1_mono.wav	l'hôtel	no	yes	NA	no	1453	1	no
1	A1	1	1	22	female	right	Other	111	f20_0_p3_1_mono.wav	la famille	no	yes	NA	no	1256	5	yes
1	A1	1	1	22	female	right	Other	112	n93_2_p3_1_mono.wav	le r'vercle	no	no	r	yes	1140	1	yes
1	A1	1	1	22	female	right	Other	113	f26_0_p1_1_mono.wav	la ville	no	yes	NA	no	1213	5	yes
1	A1	1	1	22	female	right	Other	114	n18_1_p3_1_mono.wav	le reclin	no	no	u	yes	2073	5	no
1	A1	1	1	22	female	right	Other	115	n32_0_p1_1_mono.wav	l'heule	no	no	NA	no	910	1	yes
1	A1	1	1	22	female	right	Other	116	t01_2_p4_2_mono.wav	la b'lette	yes	yes	r	yes	1150	5	yes
1	A1	1	1	22	female	right	Other	117	n23_2_p1_1_mono.wav	la s'pave	no	no	r	yes	1645	1	yes
1	A1	1	1	22	female	right	Other	118	t02_1_p1_2_mono.wav	la levrette	yes	yes	u	yes	1057	5	yes
1	A1	1	1	22	female	right	Other	119	n30_0_p2_1_mono.wav	le pien	no	no	NA	no	1024	1	yes
1	A1	1	1	22	female	right	Other	120	f39_0_p1_1_mono.wav	l'histoire	no	yes	NA	no	1835	1	no
1	A1	1	1	22	female	right	Other	121	t08_1_p3_2_mono.wav	la semelle	yes	yes	u	yes	1148	5	yes
1	A1	1	1	22	female	right	Other	122	f63_2_p4_1_mono.wav	le ch'val	no	yes	r	yes	1156	5	yes
1	A1	1	1	22	female	right	Other	123	n16_2_p4_1_mono.wav	la p'doche	no	no	r	yes	1062	1	yes
1	A1	1	1	22	female	right	Other	124	t07_2_p1_2_mono.wav	la b'daine	yes	yes	r	yes	2416	1	no
1	A1	1	1	22	female	right	Other	125	f17_0_p4_1_mono.wav	l'accord	no	yes	NA	no	1147	5	yes
1	A1	1	1	22	female	right	Other	126	t13_2_p3_2_mono.wav	le s'vrage	yes	yes	r	yes	1387	5	yes
1	A1	1	1	22	female	right	Other	127	f10_0_p2_1_mono.wav	le chat	no	yes	NA	no	987	1	no
1	A1	1	1	22	female	right	Other	128	n48_0_p2_1_mono.wav	la mainou	no	no	NA	no	1069	5	no
1	A1	1	1	22	female	right	Other	129	f11_0_p2_1_mono.wav	le milieu	no	yes	NA	no	1374	1	no
1	A1	1	1	22	female	right	Other	130	n46_0_p1_1_mono.wav	la jourcie	no	no	NA	no	1458	1	yes
1	A1	1	1	22	female	right	Other	131	f37_0_p2_1_mono.wav	l'amour	no	yes	NA	no	1002	5	yes
1	A1	1	1	22	female	right	Other	132	n53_0_p1_1_mono.wav	le frolège	no	no	NA	no	1292	1	yes
1	A1	1	1	22	female	right	Other	133	n88_1_p2_1_mono.wav	le messin	no	no	u	yes	1193	1	yes
1	A1	1	1	22	female	right	Other	134	n47_0_p4_1_mono.wav	la nure	no	no	NA	no	2440	1	yes
1	A1	1	1	22	female	right	Other	135	n56_0_p3_1_mono.wav	le mossu	no	no	NA	no	1322	1	yes
1	A1	1	1	22	female	right	Other	136	t03_2_p2_2_mono.wav	la m'notte	yes	yes	r	yes	1070	5	yes
1	A1	1	1	22	female	right	Other	137	n72_0_p3_1_mono.wav	la teune	no	no	NA	no	1326	1	yes
1	A1	1	1	22	female	right	Other	138	f35_0_p4_1_mono.wav	le soldat	no	yes	NA	no	1598	1	no
1	A1	1	1	22	female	right	Other	139	t06_1_p1_2_mono.wav	le recel	yes	yes	u	yes	1236	5	yes
1	A1	1	1	22	female	right	Other	140	f25_0_p3_1_mono.wav	la question	no	yes	NA	no	1132	5	yes
1	A1	1	1	22	female	right	Other	141	n14_1_p1_1_mono.wav	la chemaille	no	no	u	yes	1144	1	yes
1	A1	1	1	22	female	right	Other	142	n79_0_p4_1_mono.wav	le tavre	no	no	NA	no	1323	5	no
1	A1	1	1	22	female	right	Other	143	f08_0_p4_1_mono.wav	l'heure	no	yes	NA	no	1180	1	no
1	A1	1	1	22	female	right	Other	144	f33_0_p4_1_mono.wav	le rapport	no	yes	NA	no	1442	1	no
1	A1	1	1	22	female	right	Other	145	n12_1_p1_1_mono.wav	le rechant	no	no	u	yes	1579	1	yes
1	A1	1	1	22	female	right	Other	146	f05_0_p2_1_mono.wav	le chien	no	yes	NA	no	1885	1	no
1	A1	1	1	22	female	right	Other	147	f16_0_p4_1_mono.wav	l'école	no	yes	NA	no	992	5	yes
1	A1	1	1	22	female	right	Other	148	t05_2_p3_2_mono.wav	le g'nièvre	yes	yes	r	yes	978	5	yes
1	A1	1	1	22	female	right	Other	149	n25_0_p1_1_mono.wav	l'incre	no	no	NA	no	1344	1	yes
1	A1	1	1	22	female	right	Other	150	f49_0_p2_1_mono.wav	le bureau	no	yes	NA	no	1059	5	yes
1	A1	1	1	22	female	right	Other	151	n51_0_p4_1_mono.wav	le caffant	no	no	NA	no	2761	1	yes
1	A1	1	1	22	female	right	Other	152	n81_0_p1_1_mono.wav	le croux	no	no	NA	no	1144	5	no
1	A1	1	1	22	female	right	Other	153	n66_0_p2_1_mono.wav	la cance	no	no	NA	no	1488	5	no
1	A1	1	1	22	female	right	Other	154	f60_0_p1_1_mono.wav	le tour	no	yes	NA	no	1055	1	no
1	A1	1	1	22	female	right	Other	155	f12_0_p4_1_mono.wav	le monde	no	yes	NA	no	1961	5	yes
1	A1	1	1	22	female	right	Other	156	f52_0_p2_1_mono.wav	le genre	no	yes	NA	no	1181	1	no
1	A1	1	1	22	female	right	Other	157	t09_2_p2_2_mono.wav	le f'nouil	yes	yes	r	yes	1127	5	yes
1	A1	1	1	22	female	right	Other	158	n82_0_p2_1_mono.wav	le sermite	no	no	NA	no	1652	1	yes
1	A1	1	1	22	female	right	Other	159	n10_2_p3_1_mono.wav	le r'got	no	no	r	yes	2324	1	yes
1	A1	1	1	22	female	right	Other	160	n08_2_p2_1_mono.wav	la s'cotte	no	no	r	yes	2132	5	no
1	A1	1	1	22	female	right	Other	161	n04_2_p4_1_mono.wav	la r'noise	no	no	r	yes	2134	1	yes
1	A1	1	1	22	female	right	Other	162	n85_2_p1_1_mono.wav	le s'funt	no	no	r	yes	1747	5	no
1	A1	1	1	22	female	right	Other	163	n55_0_p3_1_mono.wav	le nourd	no	no	NA	no	2435	1	yes
1	A1	1	1	22	female	right	Other	164	t19_2_p2_2_mono.wav	le ch'nil	yes	yes	r	yes	1187	5	yes
1	A1	1	1	22	female	right	Other	165	f15_0_p3_1_mono.wav	le train	no	yes	NA	no	2997	1	no
1	A1	1	1	22	female	right	Other	166	t20_1_p3_2_mono.wav	le meneau	yes	yes	u	yes	1120	5	yes
1	A1	1	1	22	female	right	Other	167	n07_1_p2_1_mono.wav	la bechesse	no	no	u	yes	2050	1	yes
1	A1	1	1	22	female	right	Other	168	f51_0_p3_1_mono.wav	le chef	no	yes	NA	no	1114	5	yes
1	A1	1	1	22	female	right	Other	169	f14_0_p2_1_mono.wav	le soir	no	yes	NA	no	1666	5	yes
1	A1	1	1	22	female	right	Other	170	n83_0_p4_1_mono.wav	le sogueil	no	no	NA	no	1324	1	yes
1	A1	1	1	22	female	right	Other	171	n28_0_p1_1_mono.wav	la veure	no	no	NA	no	1353	1	yes
1	A1	1	1	22	female	right	Other	172	f43_0_p4_1_mono.wav	la femme	no	yes	NA	no	1345	5	yes
1	A1	1	1	22	female	right	Other	173	n54_0_p1_1_mono.wav	le garfait	no	no	NA	no	1601	1	yes
1	A1	1	1	22	female	right	Other	174	n68_0_p3_1_mono.wav	la moucle	no	no	NA	no	1304	1	yes
1	A1	1	1	22	female	right	Other	175	f06_0_p2_1_mono.wav	le point	no	yes	NA	no	1156	5	yes
1	A1	1	1	22	female	right	Other	176	f48_0_p3_1_mono.wav	la scène	no	yes	NA	no	2241	1	no
1	A1	1	1	22	female	right	Other	177	t12_1_p4_2_mono.wav	le requin	yes	yes	u	yes	1530	5	yes
1	A1	1	1	22	female	right	Other	178	n84_0_p4_1_mono.wav	le vort	no	no	NA	no	1195	1	yes
1	A1	1	1	22	female	right	Other	179	n37_0_p4_1_mono.wav	le padiot	no	no	NA	no	1612	1	yes
1	A1	1	1	22	female	right	Other	180	t17_2_p4_2_mono.wav	la s'moule	yes	yes	r	yes	1012	5	yes
1	A1	1	1	22	female	right	Other	181	n95_2_p4_1_mono.wav	le r'pus	no	no	r	yes	1560	5	no
1	A1	1	1	22	female	right	Other	182	n92_2_p4_1_mono.wav	le r'gure	no	no	r	yes	1006	1	yes
1	A1	1	1	22	female	right	Other	183	n41_0_p2_1_mono.wav	l'agime	no	no	NA	no	1386	1	yes
1	A1	1	1	22	female	right	Other	184	f69_2_p2_1_mono.wav	le r'gistre	no	yes	r	yes	1352	1	no
1	A1	1	1	22	female	right	Other	185	f07_0_p4_1_mono.wav	l'année	no	yes	NA	no	1206	5	yes
1	A1	1	1	22	female	right	Other	186	n21_2_p1_1_mono.wav	le r'pèze	no	no	r	yes	2038	1	yes
1	A1	1	1	22	female	right	Other	187	f28_0_p4_1_mono.wav	le frère	no	yes	NA	no	1092	5	yes
1	A1	1	1	22	female	right	Other	188	f64_1_p3_1_mono.wav	le melon	no	yes	u	yes	1148	5	yes
1	A1	1	1	22	female	right	Other	189	n26_0_p4_1_mono.wav	la jun	no	no	NA	no	947	1	yes
1	A1	1	1	22	female	right	Other	190	f68_2_p4_1_mono.wav	le r'tard	no	yes	r	yes	2866	1	no
1	A1	1	1	22	female	right	Other	191	n15_1_p1_1_mono.wav	la pessade	no	no	u	yes	1503	1	yes
1	A1	1	1	22	female	right	Other	192	t18_1_p2_2_mono.wav	le reflet	yes	yes	u	yes	1070	5	yes
1	A1	2	2	21	female	right	Other	1	f66_2_p2_1_mono.wav	le d'main	no	yes	r	yes	2272	1	no
1	A1	2	2	21	female	right	Other	2	n75_0_p2_1_mono.wav	le fège	no	no	NA	no	2233	5	no
1	A1	2	2	21	female	right	Other	3	f34_0_p1_1_mono.wav	le silence	no	yes	NA	no	2035	5	yes
1	A1	2	2	21	female	right	Other	4	f72_1_p1_1_mono.wav	la revanche	no	yes	u	yes	1421	5	yes
1	A1	2	2	21	female	right	Other	5	n29_0_p2_1_mono.wav	le choint	no	no	NA	no	2492	5	no
1	A1	2	2	21	female	right	Other	6	f67_1_p3_1_mono.wav	le refuge	no	yes	u	yes	2091	1	no
1	A1	2	2	21	female	right	Other	7	f32_0_p4_1_mono.wav	le moment	no	yes	NA	no	1219	5	yes
1	A1	2	2	21	female	right	Other	8	n73_0_p1_1_mono.wav	le buveau	no	no	NA	no	2139	5	no
1	A1	2	2	21	female	right	Other	9	n03_1_p1_1_mono.wav	la mequisse	no	no	u	yes	2038	1	yes
1	A1	2	2	21	female	right	Other	10	f50_0_p2_1_mono.wav	le café	no	yes	NA	no	1505	1	no
1	A1	2	2	21	female	right	Other	11	f30_0_p4_1_mono.wav	le garçon	no	yes	NA	no	1045	5	yes
1	A1	2	2	21	female	right	Other	12	n58_0_p1_1_mono.wav	la siture	no	no	NA	no	1636	1	yes
1	A1	2	2	21	female	right	Other	13	n22_2_p3_1_mono.wav	le r'logue	no	no	r	yes	2014	1	yes
1	A1	2	2	21	female	right	Other	14	n74_0_p1_1_mono.wav	le camont	no	no	NA	no	2143	1	yes
1	A1	2	2	21	female	right	Other	15	f61_1_p3_1_mono.wav	le semi	no	yes	u	yes	1753	5	yes
1	A1	2	2	21	female	right	Other	16	n31_0_p1_1_mono.wav	l'annue	no	no	NA	no	1725	1	yes
1	A1	2	2	21	female	right	Other	17	n01_2_p1_1_mono.wav	la b'rasse	no	no	r	yes	1994	5	no
1	A1	2	2	21	female	right	Other	18	f62_1_p1_1_mono.wav	le ressort	no	yes	u	yes	2596	1	no
1	A1	2	2	21	female	right	Other	19	n96_1_p2_1_mono.wav	la refare	no	no	u	yes	3014	1	yes
1	A1	2	2	21	female	right	Other	20	n70_0_p1_1_mono.wav	la nale	no	no	NA	no	2091	1	yes
1	A1	2	2	21	female	right	Other	21	f04_0_p2_1_mono.wav	la soeur	no	yes	NA	no	1323	5	yes
1	A1	2	2	21	female	right	Other	22	n89_1_p3_1_mono.wav	le rebil	no	no	u	yes	1943	1	yes
1	A1	2	2	21	female	right	Other	23	n60_0_p1_1_mono.wav	le tinge	no	no	NA	no	1892	1	yes
1	A1	2	2	21	female	right	Other	24	t22_1_p4_2_mono.wav	le renard	yes	yes	u	yes	1661	5	yes
1	A1	2	2	21	female	right	Other	25	n91_2_p3_1_mono.wav	le r'lide	no	no	r	yes	1626	1	yes
1	A1	2	2	21	female	right	Other	26	f71_2_p1_1_mono.wav	le r'cord	no	yes	r	yes	2213	5	yes
1	A1	2	2	21	female	right	Other	27	f03_0_p4_1_mono.wav	la nuit	no	yes	NA	no	1498	5	yes
1	A1	2	2	21	female	right	Other	28	n05_1_p4_1_mono.wav	le gegnoble	no	no	u	yes	1664	1	yes
1	A1	2	2	21	female	right	Other	29	n49_0_p2_1_mono.wav	la questier	no	no	NA	no	1731	1	yes
1	A1	2	2	21	female	right	Other	30	n27_0_p2_1_mono.wav	la tuit	no	no	NA	no	1619	1	yes
1	A1	2	2	21	female	right	Other	31	n39_0_p2_1_mono.wav	le grat	no	no	NA	no	1247	5	no
1	A1	2	2	21	female	right	Other	32	f19_0_p2_1_mono.wav	l'idée	no	yes	NA	no	1647	1	no
1	A1	2	2	21	female	right	Other	33	n02_2_p2_1_mono.wav	la l'druche	no	no	r	yes	1635	1	yes
1	A1	2	2	21	female	right	Other	34	f41_0_p4_1_mono.wav	la carte	no	yes	NA	no	1379	5	yes
1	A1	2	2	21	female	right	Other	35	f47_0_p2_1_mono.wav	la route	no	yes	NA	no	1541	5	yes
1	A1	2	2	21	female	right	Other	36	n09_2_p1_1_mono.wav	le f'mmeil	no	no	r	yes	1364	1	yes
1	A1	2	2	21	female	right	Other	37	t11_2_p3_2_mono.wav	le r'mous	yes	yes	r	yes	1459	1	no
1	A1	2	2	21	female	right	Other	38	n90_2_p2_1_mono.wav	le d'sseau	no	no	r	yes	1343	1	yes
1	A1	2	2	21	female	right	Other	39	f01_0_p4_1_mono.wav	l'oncle	no	yes	NA	no	1730	1	no
1	A1	2	2	21	female	right	Other	40	f44_0_p1_1_mono.wav	la lettre	no	yes	NA	no	1743	5	yes
1	A1	2	2	21	female	right	Other	41	n33_0_p2_1_mono.wav	la juisse	no	no	NA	no	1877	5	no
1	A1	2	2	21	female	right	Other	42	n44_0_p1_1_mono.wav	la fanouille	no	no	NA	no	1449	5	no
1	A1	2	2	21	female	right	Other	43	n65_0_p4_1_mono.wav	la murte	no	no	NA	no	1455	1	yes
1	A1	2	2	21	female	right	Other	44	n62_0_p4_1_mono.wav	l'hosor	no	no	NA	no	1381	1	yes
1	A1	2	2	21	female	right	Other	45	f70_1_p1_1_mono.wav	le semestre	no	yes	u	yes	2020	1	no
1	A1	2	2	21	female	right	Other	46	t21_2_p3_2_mono.wav	le r'cul	yes	yes	r	yes	1576	5	yes
1	A1	2	2	21	female	right	Other	47	n69_0_p1_1_mono.wav	la madaine	no	no	NA	no	1486	5	no
1	A1	2	2	21	female	right	Other	48	f55_0_p4_1_mono.wav	le livre	no	yes	NA	no	1734	1	no
1	A1	2	2	21	female	right	Other	49	f27_0_p1_1_mono.wav	le cadeau	no	yes	NA	no	1426	5	yes
1	A1	2	2	21	female	right	Other	50	n50_0_p2_1_mono.wav	la rille	no	no	NA	no	1459	1	yes
1	A1	2	2	21	female	right	Other	51	f45_0_p2_1_mono.wav	la madame	no	yes	NA	no	982	5	yes
1	A1	2	2	21	female	right	Other	52	n20_1_p1_1_mono.wav	le mejet	no	no	u	yes	1602	1	yes
1	A1	2	2	21	female	right	Other	53	n35_0_p3_1_mono.wav	le missien	no	no	NA	no	2427	1	yes
1	A1	2	2	21	female	right	Other	54	n19_1_p3_1_mono.wav	le chedel	no	no	u	yes	1848	1	yes
1	A1	2	2	21	female	right	Other	55	n63_0_p1_1_mono.wav	la histienne	no	no	NA	no	1626	1	yes
1	A1	2	2	21	female	right	Other	56	f18_0_p3_1_mono.wav	l'enfant	no	yes	NA	no	1264	5	yes
1	A1	2	2	21	female	right	Other	57	n64_0_p3_1_mono.wav	l'oune	no	no	NA	no	1599	1	yes
1	A1	2	2	21	female	right	Other	58	n52_0_p2_1_mono.wav	le drère	no	no	NA	no	1625	1	yes
1	A1	2	2	21	female	right	Other	59	n11_1_p4_1_mono.wav	le refant	no	no	u	yes	1878	5	no
1	A1	2	2	21	female	right	Other	60	n61_0_p3_1_mono.wav	l'apure	no	no	NA	no	2067	1	yes
1	A1	2	2	21	female	right	Other	61	t24_1_p2_2_mono.wav	le faisan	yes	yes	u	yes	1270	5	yes
1	A1	2	2	21	female	right	Other	62	f57_0_p2_1_mono.wav	le prix	no	yes	NA	no	1474	5	yes
1	A1	2	2	21	female	right	Other	63	f53_0_p2_1_mono.wav	le groupe	no	yes	NA	no	2433	1	no
1	A1	2	2	21	female	right	Other	64	n86_1_p3_1_mono.wav	le repire	no	no	u	yes	2296	5	no
1	A1	2	2	21	female	right	Other	65	n76_0_p4_1_mono.wav	le tenre	no	no	NA	no	1514	1	yes
1	A1	2	2	21	female	right	Other	66	t15_2_p2_2_mono.wav	la p'louse	yes	yes	r	yes	1660	5	yes
1	A1	2	2	21	female	right	Other	67	n17_2_p4_1_mono.wav	la s'gence	no	no	r	yes	2096	5	no
1	A1	2	2	21	female	right	Other	68	t10_1_p1_2_mono.wav	le rebond	yes	yes	u	yes	1347	5	yes
1	A1	2	2	21	female	right	Other	69	n34_0_p3_1_mono.wav	le teau	no	no	NA	no	1071	1	yes
1	A1	2	2	21	female	right	Other	70	f40_0_p1_1_mono.wav	l'homme	no	yes	NA	no	1298	1	no
1	A1	2	2	21	female	right	Other	71	f58_0_p1_1_mono.wav	le service	no	yes	NA	no	1307	5	yes
1	A1	2	2	21	female	right	Other	72	n13_1_p2_1_mono.wav	le seblème	no	no	u	yes	1765	1	yes
1	A1	2	2	21	female	right	Other	73	n94_1_p2_1_mono.wav	le sequestre	no	no	u	yes	1544	1	yes
1	A1	2	2	21	female	right	Other	74	n57_0_p1_1_mono.wav	le ratime	no	no	NA	no	1636	1	yes
1	A1	2	2	21	female	right	Other	75	n77_0_p4_1_mono.wav	le bruc	no	no	NA	no	1272	5	no
1	A1	2	2	21	female	right	Other	76	f24_0_p2_1_mono.wav	la maison	no	yes	NA	no	1324	5	yes
1	A1	2	2	21	female	right	Other	77	n45_0_p3_1_mono.wav	la horgune	no	no	NA	no	1481	1	yes
1	A1	2	2	21	female	right	Other	78	t04_1_p1_2_mono.wav	la reliure	yes	yes	u	yes	1437	5	yes
1	A1	2	2	21	female	right	Other	79	f31_0_p3_1_mono.wav	le jour	no	yes	NA	no	1143	5	yes
1	A1	2	2	21	female	right	Other	80	n24_2_p4_1_mono.wav	le f'quon	no	no	r	yes	1388	1	yes
1	A1	2	2	21	female	right	Other	81	n40_0_p3_1_mono.wav	l'équise	no	no	NA	no	3068	1	yes
1	A1	2	2	21	female	right	Other	82	n59_0_p4_1_mono.wav	le solti	no	no	NA	no	1528	1	yes
1	A1	2	2	21	female	right	Other	83	t16_1_p1_2_mono.wav	la peluche	yes	yes	u	yes	1169	5	yes
1	A1	2	2	21	female	right	Other	84	f13_0_p4_1_mono.wav	le papier	no	yes	NA	no	1498	5	yes
1	A1	2	2	21	female	right	Other	85	f22_0_p3_1_mono.wav	la journée	no	yes	NA	no	1434	5	yes
1	A1	2	2	21	female	right	Other	86	f59_0_p2_1_mono.wav	le soleil	no	yes	NA	no	1146	5	yes
1	A1	2	2	21	female	right	Other	87	f42_0_p1_1_mono.wav	la chance	no	yes	NA	no	1519	5	yes
1	A1	2	2	21	female	right	Other	88	n80_0_p2_1_mono.wav	le péhut	no	no	NA	no	1491	1	yes
1	A1	2	2	21	female	right	Other	89	n67_0_p2_1_mono.wav	la janne	no	no	NA	no	1771	1	yes
1	A1	2	2	21	female	right	Other	90	f54_0_p1_1_mono.wav	le journal	no	yes	NA	no	1429	5	yes
1	A1	2	2	21	female	right	Other	91	f02_0_p2_1_mono.wav	la main	no	yes	NA	no	1375	1	no
1	A1	2	2	21	female	right	Other	92	t14_1_p2_2_mono.wav	la chenille	yes	yes	u	yes	1301	5	yes
1	A1	2	2	21	female	right	Other	93	n42_0_p1_1_mono.wav	l'endos	no	no	NA	no	1325	1	yes
1	A1	2	2	21	female	right	Other	94	f29_0_p3_1_mono.wav	le fromage	no	yes	NA	no	1186	5	yes
1	A1	2	2	21	female	right	Other	95	n38_0_p2_1_mono.wav	le suir	no	no	NA	no	1507	1	yes
1	A1	2	2	21	female	right	Other	96	f65_2_p1_1_mono.wav	le r'paire	no	yes	r	yes	1370	1	no
1	A1	2	2	21	female	right	Other	97	f56_0_p3_1_mono.wav	le pays	no	yes	NA	no	1800	1	no
1	A1	2	2	21	female	right	Other	98	n06_1_p2_1_mono.wav	le retal	no	no	u	yes	1684	1	yes
1	A1	2	2	21	female	right	Other	99	f21_0_p1_1_mono.wav	la horloge	no	yes	NA	no	1282	1	no
1	A1	2	2	21	female	right	Other	100	t23_2_p2_2_mono.wav	la s'cousse	yes	yes	r	yes	1123	5	yes
1	A1	2	2	21	female	right	Other	101	f46_0_p1_1_mono.wav	la part	no	yes	NA	no	1238	1	no
1	A1	2	2	21	female	right	Other	102	n87_1_p3_1_mono.wav	le chenache	no	no	u	yes	1398	5	no
1	A1	2	2	21	female	right	Other	103	n43_0_p2_1_mono.wav	l'ivée	no	no	NA	no	1417	1	yes
1	A1	2	2	21	female	right	Other	104	n71_0_p3_1_mono.wav	la foite	no	no	NA	no	2010	1	yes
1	A1	2	2	21	female	right	Other	105	n36_0_p1_1_mono.wav	le linde	no	no	NA	no	2034	1	yes
1	A1	2	2	21	female	right	Other	106	n78_0_p1_1_mono.wav	le jourlingue	no	no	NA	no	1910	1	yes
1	A1	2	2	21	female	right	Other	107	f23_0_p1_1_mono.wav	la mère	no	yes	NA	no	1237	5	yes
1	A1	2	2	21	female	right	Other	108	f09_0_p2_1_mono.wav	la pièce	no	yes	NA	no	1924	1	no
1	A1	2	2	21	female	right	Other	109	f36_0_p1_1_mono.wav	le type	no	yes	NA	no	1790	1	no
1	A1	2	2	21	female	right	Other	110	f38_0_p3_1_mono.wav	l'hôtel	no	yes	NA	no	1701	1	no
1	A1	2	2	21	female	right	Other	111	f20_0_p3_1_mono.wav	la famille	no	yes	NA	no	1255	5	yes
1	A1	2	2	21	female	right	Other	112	n93_2_p3_1_mono.wav	le r'vercle	no	no	r	yes	1629	1	yes
1	A1	2	2	21	female	right	Other	113	f26_0_p1_1_mono.wav	la ville	no	yes	NA	no	1060	5	yes
1	A1	2	2	21	female	right	Other	114	n18_1_p3_1_mono.wav	le reclin	no	no	u	yes	1237	1	yes
1	A1	2	2	21	female	right	Other	115	n32_0_p1_1_mono.wav	l'heule	no	no	NA	no	1317	1	yes
1	A1	2	2	21	female	right	Other	116	t01_2_p4_2_mono.wav	la b'lette	yes	yes	r	yes	1593	5	yes
1	A1	2	2	21	female	right	Other	117	n23_2_p1_1_mono.wav	la s'pave	no	no	r	yes	1686	1	yes
1	A1	2	2	21	female	right	Other	118	t02_1_p1_2_mono.wav	la levrette	yes	yes	u	yes	1256	5	yes
1	A1	2	2	21	female	right	Other	119	n30_0_p2_1_mono.wav	le pien	no	no	NA	no	1780	1	yes
1	A1	2	2	21	female	right	Other	120	f39_0_p1_1_mono.wav	l'histoire	no	yes	NA	no	2447	1	no
1	A1	2	2	21	female	right	Other	121	t08_1_p3_2_mono.wav	la semelle	yes	yes	u	yes	1282	5	yes
1	A1	2	2	21	female	right	Other	122	f63_2_p4_1_mono.wav	le ch'val	no	yes	r	yes	1431	1	no
1	A1	2	2	21	female	right	Other	123	n16_2_p4_1_mono.wav	la p'doche	no	no	r	yes	1272	1	yes
1	A1	2	2	21	female	right	Other	124	t07_2_p1_2_mono.wav	la b'daine	yes	yes	r	yes	1165	5	yes
1	A1	2	2	21	female	right	Other	125	f17_0_p4_1_mono.wav	l'accord	no	yes	NA	no	3241	1	no
1	A1	2	2	21	female	right	Other	126	t13_2_p3_2_mono.wav	le s'vrage	yes	yes	r	yes	1964	5	yes
1	A1	2	2	21	female	right	Other	127	f10_0_p2_1_mono.wav	le chat	no	yes	NA	no	1440	5	yes
1	A1	2	2	21	female	right	Other	128	n48_0_p2_1_mono.wav	la mainou	no	no	NA	no	1850	1	yes
1	A1	2	2	21	female	right	Other	129	f11_0_p2_1_mono.wav	le milieu	no	yes	NA	no	1701	5	yes
1	A1	2	2	21	female	right	Other	130	n46_0_p1_1_mono.wav	la jourcie	no	no	NA	no	1463	1	yes
1	A1	2	2	21	female	right	Other	131	f37_0_p2_1_mono.wav	l'amour	no	yes	NA	no	1560	5	yes
1	A1	2	2	21	female	right	Other	132	n53_0_p1_1_mono.wav	le frolège	no	no	NA	no	1916	1	yes
1	A1	2	2	21	female	right	Other	133	n88_1_p2_1_mono.wav	le messin	no	no	u	yes	2228	1	yes
1	A1	2	2	21	female	right	Other	134	n47_0_p4_1_mono.wav	la nure	no	no	NA	no	1762	1	yes
1	A1	2	2	21	female	right	Other	135	n56_0_p3_1_mono.wav	le mossu	no	no	NA	no	1250	1	yes
1	A1	2	2	21	female	right	Other	136	t03_2_p2_2_mono.wav	la m'notte	yes	yes	r	yes	1262	5	yes
1	A1	2	2	21	female	right	Other	137	n72_0_p3_1_mono.wav	la teune	no	no	NA	no	1860	1	yes
1	A1	2	2	21	female	right	Other	138	f35_0_p4_1_mono.wav	le soldat	no	yes	NA	no	1424	5	yes
1	A1	2	2	21	female	right	Other	139	t06_1_p1_2_mono.wav	le recel	yes	yes	u	yes	2160	1	no
1	A1	2	2	21	female	right	Other	140	f25_0_p3_1_mono.wav	la question	no	yes	NA	no	1777	1	no
1	A1	2	2	21	female	right	Other	141	n14_1_p1_1_mono.wav	la chemaille	no	no	u	yes	1668	1	yes
1	A1	2	2	21	female	right	Other	142	n79_0_p4_1_mono.wav	le tavre	no	no	NA	no	1574	1	yes
1	A1	2	2	21	female	right	Other	143	f08_0_p4_1_mono.wav	l'heure	no	yes	NA	no	1464	1	no
1	A1	2	2	21	female	right	Other	144	f33_0_p4_1_mono.wav	le rapport	no	yes	NA	no	1418	1	no
1	A1	2	2	21	female	right	Other	145	n12_1_p1_1_mono.wav	le rechant	no	no	u	yes	1486	1	yes
1	A1	2	2	21	female	right	Other	146	f05_0_p2_1_mono.wav	le chien	no	yes	NA	no	1089	5	yes
1	A1	2	2	21	female	right	Other	147	f16_0_p4_1_mono.wav	l'école	no	yes	NA	no	2127	5	yes
1	A1	2	2	21	female	right	Other	148	t05_2_p3_2_mono.wav	le g'nièvre	yes	yes	r	yes	2770	5	yes
1	A1	2	2	21	female	right	Other	149	n25_0_p1_1_mono.wav	l'incre	no	no	NA	no	1617	1	yes
1	A1	2	2	21	female	right	Other	150	f49_0_p2_1_mono.wav	le bureau	no	yes	NA	no	1164	5	yes
1	A1	2	2	21	female	right	Other	151	n51_0_p4_1_mono.wav	le caffant	no	no	NA	no	1679	1	yes
1	A1	2	2	21	female	right	Other	152	n81_0_p1_1_mono.wav	le croux	no	no	NA	no	1818	1	yes
1	A1	2	2	21	female	right	Other	153	n66_0_p2_1_mono.wav	la cance	no	no	NA	no	1521	1	yes
1	A1	2	2	21	female	right	Other	154	f60_0_p1_1_mono.wav	le tour	no	yes	NA	no	1016	5	yes
1	A1	2	2	21	female	right	Other	155	f12_0_p4_1_mono.wav	le monde	no	yes	NA	no	1742	1	no
1	A1	2	2	21	female	right	Other	156	f52_0_p2_1_mono.wav	le genre	no	yes	NA	no	1585	5	yes
1	A1	2	2	21	female	right	Other	157	t09_2_p2_2_mono.wav	le f'nouil	yes	yes	r	yes	1404	5	yes
1	A1	2	2	21	female	right	Other	158	n82_0_p2_1_mono.wav	le sermite	no	no	NA	no	1785	1	yes
1	A1	2	2	21	female	right	Other	159	n10_2_p3_1_mono.wav	le r'got	no	no	r	yes	1803	5	no
1	A1	2	2	21	female	right	Other	160	n08_2_p2_1_mono.wav	la s'cotte	no	no	r	yes	1911	1	yes
1	A1	2	2	21	female	right	Other	161	n04_2_p4_1_mono.wav	la r'noise	no	no	r	yes	1482	1	yes
1	A1	2	2	21	female	right	Other	162	n85_2_p1_1_mono.wav	le s'funt	no	no	r	yes	1332	1	yes
1	A1	2	2	21	female	right	Other	163	n55_0_p3_1_mono.wav	le nourd	no	no	NA	no	1889	1	yes
1	A1	2	2	21	female	right	Other	164	t19_2_p2_2_mono.wav	le ch'nil	yes	yes	r	yes	1327	5	yes
1	A1	2	2	21	female	right	Other	165	f15_0_p3_1_mono.wav	le train	no	yes	NA	no	1773	1	no
1	A1	2	2	21	female	right	Other	166	t20_1_p3_2_mono.wav	le meneau	yes	yes	u	yes	1849	5	yes
1	A1	2	2	21	female	right	Other	167	n07_1_p2_1_mono.wav	la bechesse	no	no	u	yes	1281	1	yes
1	A1	2	2	21	female	right	Other	168	f51_0_p3_1_mono.wav	le chef	no	yes	NA	no	1319	1	no
1	A1	2	2	21	female	right	Other	169	f14_0_p2_1_mono.wav	le soir	no	yes	NA	no	1638	5	yes
1	A1	2	2	21	female	right	Other	170	n83_0_p4_1_mono.wav	le sogueil	no	no	NA	no	1431	1	yes
1	A1	2	2	21	female	right	Other	171	n28_0_p1_1_mono.wav	la veure	no	no	NA	no	1339	1	yes
1	A1	2	2	21	female	right	Other	172	f43_0_p4_1_mono.wav	la femme	no	yes	NA	no	1289	5	yes
1	A1	2	2	21	female	right	Other	173	n54_0_p1_1_mono.wav	le garfait	no	no	NA	no	1515	1	yes
1	A1	2	2	21	female	right	Other	174	n68_0_p3_1_mono.wav	la moucle	no	no	NA	no	1340	1	yes
1	A1	2	2	21	female	right	Other	175	f06_0_p2_1_mono.wav	le point	no	yes	NA	no	1518	5	yes
1	A1	2	2	21	female	right	Other	176	f48_0_p3_1_mono.wav	la scène	no	yes	NA	no	1503	1	no
1	A1	2	2	21	female	right	Other	177	t12_1_p4_2_mono.wav	le requin	yes	yes	u	yes	1033	5	yes
1	A1	2	2	21	female	right	Other	178	n84_0_p4_1_mono.wav	le vort	no	no	NA	no	1378	1	yes
1	A1	2	2	21	female	right	Other	179	n37_0_p4_1_mono.wav	le padiot	no	no	NA	no	1709	1	yes
1	A1	2	2	21	female	right	Other	180	t17_2_p4_2_mono.wav	la s'moule	yes	yes	r	yes	1211	5	yes
1	A1	2	2	21	female	right	Other	181	n95_2_p4_1_mono.wav	le r'pus	no	no	r	yes	2278	1	yes
1	A1	2	2	21	female	right	Other	182	n92_2_p4_1_mono.wav	le r'gure	no	no	r	yes	1502	1	yes
1	A1	2	2	21	female	right	Other	183	n41_0_p2_1_mono.wav	l'agime	no	no	NA	no	1941	1	yes
1	A1	2	2	21	female	right	Other	184	f69_2_p2_1_mono.wav	le r'gistre	no	yes	r	yes	1359	1	no
1	A1	2	2	21	female	right	Other	185	f07_0_p4_1_mono.wav	l'année	no	yes	NA	no	2424	1	no
1	A1	2	2	21	female	right	Other	186	n21_2_p1_1_mono.wav	le r'pèze	no	no	r	yes	1215	1	yes
1	A1	2	2	21	female	right	Other	187	f28_0_p4_1_mono.wav	le frère	no	yes	NA	no	1322	5	yes
1	A1	2	2	21	female	right	Other	188	f64_1_p3_1_mono.wav	le melon	no	yes	u	yes	1598	5	yes
1	A1	2	2	21	female	right	Other	189	n26_0_p4_1_mono.wav	la jun	no	no	NA	no	1887	1	yes
1	A1	2	2	21	female	right	Other	190	f68_2_p4_1_mono.wav	le r'tard	no	yes	r	yes	1953	1	no
1	A1	2	2	21	female	right	Other	191	n15_1_p1_1_mono.wav	la pessade	no	no	u	yes	1325	1	yes
1	A1	2	2	21	female	right	Other	192	t18_1_p2_2_mono.wav	le reflet	yes	yes	u	yes	1322	5	yes
1	A1	1	17	18	male	right	Other	1	f66_2_p2_1_mono.wav	le d'main	no	yes	r	yes	3338	1	no
1	A1	1	17	18	male	right	Other	2	n75_0_p2_1_mono.wav	le fège	no	no	NA	no	2309	5	no
1	A1	1	17	18	male	right	Other	3	f34_0_p1_1_mono.wav	le silence	no	yes	NA	no	1805	5	yes
1	A1	1	17	18	male	right	Other	4	f72_1_p1_1_mono.wav	la revanche	no	yes	u	yes	2099	5	yes
1	A1	1	17	18	male	right	Other	5	n29_0_p2_1_mono.wav	le choint	no	no	NA	no	1986	1	yes
1	A1	1	17	18	male	right	Other	6	f67_1_p3_1_mono.wav	le refuge	no	yes	u	yes	2988	5	yes
1	A1	1	17	18	male	right	Other	7	f32_0_p4_1_mono.wav	le moment	no	yes	NA	no	1544	5	yes
1	A1	1	17	18	male	right	Other	8	n73_0_p1_1_mono.wav	le buveau	no	no	NA	no	2015	5	no
1	A1	1	17	18	male	right	Other	9	n03_1_p1_1_mono.wav	la mequisse	no	no	u	yes	3481	1	yes
1	A1	1	17	18	male	right	Other	10	f50_0_p2_1_mono.wav	le café	no	yes	NA	no	2768	1	no
1	A1	1	17	18	male	right	Other	11	f30_0_p4_1_mono.wav	le garçon	no	yes	NA	no	1408	5	yes
1	A1	1	17	18	male	right	Other	12	n58_0_p1_1_mono.wav	la siture	no	no	NA	no	2602	1	yes
1	A1	1	17	18	male	right	Other	13	n22_2_p3_1_mono.wav	le r'logue	no	no	r	yes	2466	5	no
1	A1	1	17	18	male	right	Other	14	n74_0_p1_1_mono.wav	le camont	no	no	NA	no	4407	1	yes
1	A1	1	17	18	male	right	Other	15	f61_1_p3_1_mono.wav	le semi	no	yes	u	yes	2688	1	no
1	A1	1	17	18	male	right	Other	16	n31_0_p1_1_mono.wav	l'annue	no	no	NA	no	2777	5	no
1	A1	1	17	18	male	right	Other	17	n01_2_p1_1_mono.wav	la b'rasse	no	no	r	yes	1805	5	no
1	A1	1	17	18	male	right	Other	18	f62_1_p1_1_mono.wav	le ressort	no	yes	u	yes	1939	1	no
1	A1	1	17	18	male	right	Other	19	n96_1_p2_1_mono.wav	la refare	no	no	u	yes	2037	1	yes
1	A1	1	17	18	male	right	Other	20	n70_0_p1_1_mono.wav	la nale	no	no	NA	no	2872	1	yes
1	A1	1	17	18	male	right	Other	21	f04_0_p2_1_mono.wav	la soeur	no	yes	NA	no	2886	5	yes
1	A1	1	17	18	male	right	Other	22	n89_1_p3_1_mono.wav	le rebil	no	no	u	yes	2205	1	yes
1	A1	1	17	18	male	right	Other	23	n60_0_p1_1_mono.wav	le tinge	no	no	NA	no	2511	1	yes
1	A1	1	17	18	male	right	Other	24	t22_1_p4_2_mono.wav	le renard	yes	yes	u	yes	1661	5	yes
1	A1	1	17	18	male	right	Other	25	n91_2_p3_1_mono.wav	le r'lide	no	no	r	yes	1768	1	yes
1	A1	1	17	18	male	right	Other	26	f71_2_p1_1_mono.wav	le r'cord	no	yes	r	yes	3438	5	yes
1	A1	1	17	18	male	right	Other	27	f03_0_p4_1_mono.wav	la nuit	no	yes	NA	no	2226	1	no
1	A1	1	17	18	male	right	Other	28	n05_1_p4_1_mono.wav	le gegnoble	no	no	u	yes	2269	1	yes
1	A1	1	17	18	male	right	Other	29	n49_0_p2_1_mono.wav	la questier	no	no	NA	no	2660	1	yes
1	A1	1	17	18	male	right	Other	30	n27_0_p2_1_mono.wav	la tuit	no	no	NA	no	3927	1	yes
1	A1	1	17	18	male	right	Other	31	n39_0_p2_1_mono.wav	le grat	no	no	NA	no	4012	1	yes
1	A1	1	17	18	male	right	Other	32	f19_0_p2_1_mono.wav	l'idée	no	yes	NA	no	3857	1	no
1	A1	1	17	18	male	right	Other	33	n02_2_p2_1_mono.wav	la l'druche	no	no	r	yes	5299	1	yes
1	A1	1	17	18	male	right	Other	34	f41_0_p4_1_mono.wav	la carte	no	yes	NA	no	1740	5	yes
1	A1	1	17	18	male	right	Other	35	f47_0_p2_1_mono.wav	la route	no	yes	NA	no	1630	5	yes
1	A1	1	17	18	male	right	Other	36	n09_2_p1_1_mono.wav	le f'mmeil	no	no	r	yes	2815	1	yes
1	A1	1	17	18	male	right	Other	37	t11_2_p3_2_mono.wav	le r'mous	yes	yes	r	yes	3114	1	no
1	A1	1	17	18	male	right	Other	38	n90_2_p2_1_mono.wav	le d'sseau	no	no	r	yes	3473	1	yes
1	A1	1	17	18	male	right	Other	39	f01_0_p4_1_mono.wav	l'oncle	no	yes	NA	no	3480	1	no
1	A1	1	17	18	male	right	Other	40	f44_0_p1_1_mono.wav	la lettre	no	yes	NA	no	1668	5	yes
1	A1	1	17	18	male	right	Other	41	n33_0_p2_1_mono.wav	la juisse	no	no	NA	no	2623	1	yes
1	A1	1	17	18	male	right	Other	42	n44_0_p1_1_mono.wav	la fanouille	no	no	NA	no	5121	1	yes
1	A1	1	17	18	male	right	Other	43	n65_0_p4_1_mono.wav	la murte	no	no	NA	no	3099	1	yes
1	A1	1	17	18	male	right	Other	44	n62_0_p4_1_mono.wav	l'hosor	no	no	NA	no	3497	1	yes
1	A1	1	17	18	male	right	Other	45	f70_1_p1_1_mono.wav	le semestre	no	yes	u	yes	1828	5	yes
1	A1	1	17	18	male	right	Other	46	t21_2_p3_2_mono.wav	le r'cul	yes	yes	r	yes	1951	5	yes
1	A1	1	17	18	male	right	Other	47	n69_0_p1_1_mono.wav	la madaine	no	no	NA	no	1928	5	no
1	A1	1	17	18	male	right	Other	48	f55_0_p4_1_mono.wav	le livre	no	yes	NA	no	2203	5	yes
1	A1	1	17	18	male	right	Other	49	f27_0_p1_1_mono.wav	le cadeau	no	yes	NA	no	1640	5	yes
1	A1	1	17	18	male	right	Other	50	n50_0_p2_1_mono.wav	la rille	no	no	NA	no	2247	1	yes
1	A1	1	17	18	male	right	Other	51	f45_0_p2_1_mono.wav	la madame	no	yes	NA	no	1529	5	yes
1	A1	1	17	18	male	right	Other	52	n20_1_p1_1_mono.wav	le mejet	no	no	u	yes	3939	1	yes
1	A1	1	17	18	male	right	Other	53	n35_0_p3_1_mono.wav	le missien	no	no	NA	no	2725	1	yes
1	A1	1	17	18	male	right	Other	54	n19_1_p3_1_mono.wav	le chedel	no	no	u	yes	5090	1	yes
1	A1	1	17	18	male	right	Other	55	n63_0_p1_1_mono.wav	la histienne	no	no	NA	no	3478	1	yes
1	A1	1	17	18	male	right	Other	56	f18_0_p3_1_mono.wav	l'enfant	no	yes	NA	no	1645	5	yes
1	A1	1	17	18	male	right	Other	57	n64_0_p3_1_mono.wav	l'oune	no	no	NA	no	3600	1	yes
1	A1	1	17	18	male	right	Other	58	n52_0_p2_1_mono.wav	le drère	no	no	NA	no	2763	1	yes
1	A1	1	17	18	male	right	Other	59	n11_1_p4_1_mono.wav	le refant	no	no	u	yes	4639	1	yes
1	A1	1	17	18	male	right	Other	60	n61_0_p3_1_mono.wav	l'apure	no	no	NA	no	6282	1	yes
1	A1	1	17	18	male	right	Other	61	t24_1_p2_2_mono.wav	le faisan	yes	yes	u	yes	1486	5	yes
1	A1	1	17	18	male	right	Other	62	f57_0_p2_1_mono.wav	le prix	no	yes	NA	no	2382	1	no
1	A1	1	17	18	male	right	Other	63	f53_0_p2_1_mono.wav	le groupe	no	yes	NA	no	1615	5	yes
1	A1	1	17	18	male	right	Other	64	n86_1_p3_1_mono.wav	le repire	no	no	u	yes	1985	5	no
1	A1	1	17	18	male	right	Other	65	n76_0_p4_1_mono.wav	le tenre	no	no	NA	no	2998	1	yes
1	A1	1	17	18	male	right	Other	66	t15_2_p2_2_mono.wav	la p'louse	yes	yes	r	yes	1331	5	yes
1	A1	1	17	18	male	right	Other	67	n17_2_p4_1_mono.wav	la s'gence	no	no	r	yes	2347	1	yes
1	A1	1	17	18	male	right	Other	68	t10_1_p1_2_mono.wav	le rebond	yes	yes	u	yes	1608	5	yes
1	A1	1	17	18	male	right	Other	69	n34_0_p3_1_mono.wav	le teau	no	no	NA	no	2264	1	yes
1	A1	1	17	18	male	right	Other	70	f40_0_p1_1_mono.wav	l'homme	no	yes	NA	no	2083	5	yes
1	A1	1	17	18	male	right	Other	71	f58_0_p1_1_mono.wav	le service	no	yes	NA	no	2033	5	yes
1	A1	1	17	18	male	right	Other	72	n13_1_p2_1_mono.wav	le seblème	no	no	u	yes	2125	1	yes
1	A1	1	17	18	male	right	Other	73	n94_1_p2_1_mono.wav	le sequestre	no	no	u	yes	3092	1	yes
1	A1	1	17	18	male	right	Other	74	n57_0_p1_1_mono.wav	le ratime	no	no	NA	no	2877	1	yes
1	A1	1	17	18	male	right	Other	75	n77_0_p4_1_mono.wav	le bruc	no	no	NA	no	3044	1	yes
1	A1	1	17	18	male	right	Other	76	f24_0_p2_1_mono.wav	la maison	no	yes	NA	no	3838	1	no
1	A1	1	17	18	male	right	Other	77	n45_0_p3_1_mono.wav	la horgune	no	no	NA	no	1985	5	no
1	A1	1	17	18	male	right	Other	78	t04_1_p1_2_mono.wav	la reliure	yes	yes	u	yes	2509	1	no
1	A1	1	17	18	male	right	Other	79	f31_0_p3_1_mono.wav	le jour	no	yes	NA	no	1309	5	yes
1	A1	1	17	18	male	right	Other	80	n24_2_p4_1_mono.wav	le f'quon	no	no	r	yes	2000	1	yes
1	A1	1	17	18	male	right	Other	81	n40_0_p3_1_mono.wav	l'équise	no	no	NA	no	4779	1	yes
1	A1	1	17	18	male	right	Other	82	n59_0_p4_1_mono.wav	le solti	no	no	NA	no	3090	1	yes
1	A1	1	17	18	male	right	Other	83	t16_1_p1_2_mono.wav	la peluche	yes	yes	u	yes	1422	5	yes
1	A1	1	17	18	male	right	Other	84	f13_0_p4_1_mono.wav	le papier	no	yes	NA	no	2064	5	yes
1	A1	1	17	18	male	right	Other	85	f22_0_p3_1_mono.wav	la journée	no	yes	NA	no	1369	5	yes
1	A1	1	17	18	male	right	Other	86	f59_0_p2_1_mono.wav	le soleil	no	yes	NA	no	1082	5	yes
1	A1	1	17	18	male	right	Other	87	f42_0_p1_1_mono.wav	la chance	no	yes	NA	no	1002	5	yes
1	A1	1	17	18	male	right	Other	88	n80_0_p2_1_mono.wav	le péhut	no	no	NA	no	1928	1	yes
1	A1	1	17	18	male	right	Other	89	n67_0_p2_1_mono.wav	la janne	no	no	NA	no	2328	1	yes
1	A1	1	17	18	male	right	Other	90	f54_0_p1_1_mono.wav	le journal	no	yes	NA	no	1322	5	yes
1	A1	1	17	18	male	right	Other	91	f02_0_p2_1_mono.wav	la main	no	yes	NA	no	2522	1	no
1	A1	1	17	18	male	right	Other	92	t14_1_p2_2_mono.wav	la chenille	yes	yes	u	yes	1385	5	yes
1	A1	1	17	18	male	right	Other	93	n42_0_p1_1_mono.wav	l'endos	no	no	NA	no	1439	1	yes
1	A1	1	17	18	male	right	Other	94	f29_0_p3_1_mono.wav	le fromage	no	yes	NA	no	1105	5	yes
1	A1	1	17	18	male	right	Other	95	n38_0_p2_1_mono.wav	le suir	no	no	NA	no	3140	1	yes
1	A1	1	17	18	male	right	Other	96	f65_2_p1_1_mono.wav	le r'paire	no	yes	r	yes	2220	1	no
1	A1	1	17	18	male	right	Other	97	f56_0_p3_1_mono.wav	le pays	no	yes	NA	no	1806	1	no
1	A1	1	17	18	male	right	Other	98	n06_1_p2_1_mono.wav	le retal	no	no	u	yes	3652	1	yes
1	A1	1	17	18	male	right	Other	99	f21_0_p1_1_mono.wav	la horloge	no	yes	NA	no	1355	5	yes
1	A1	1	17	18	male	right	Other	100	t23_2_p2_2_mono.wav	la s'cousse	yes	yes	r	yes	2639	1	no
1	A1	1	17	18	male	right	Other	101	f46_0_p1_1_mono.wav	la part	no	yes	NA	no	4782	1	no
1	A1	1	17	18	male	right	Other	102	n87_1_p3_1_mono.wav	le chenache	no	no	u	yes	3520	1	yes
1	A1	1	17	18	male	right	Other	103	n43_0_p2_1_mono.wav	l'ivée	no	no	NA	no	2886	1	yes
1	A1	1	17	18	male	right	Other	104	n71_0_p3_1_mono.wav	la foite	no	no	NA	no	2054	5	no
1	A1	1	17	18	male	right	Other	105	n36_0_p1_1_mono.wav	le linde	no	no	NA	no	3828	1	yes
1	A1	1	17	18	male	right	Other	106	n78_0_p1_1_mono.wav	le jourlingue	no	no	NA	no	3665	1	yes
1	A1	1	17	18	male	right	Other	107	f23_0_p1_1_mono.wav	la mère	no	yes	NA	no	1332	5	yes
1	A1	1	17	18	male	right	Other	108	f09_0_p2_1_mono.wav	la pièce	no	yes	NA	no	1663	1	no
1	A1	1	17	18	male	right	Other	109	f36_0_p1_1_mono.wav	le type	no	yes	NA	no	1603	5	yes
1	A1	1	17	18	male	right	Other	110	f38_0_p3_1_mono.wav	l'hôtel	no	yes	NA	no	1665	5	yes
1	A1	1	17	18	male	right	Other	111	f20_0_p3_1_mono.wav	la famille	no	yes	NA	no	1327	5	yes
1	A1	1	17	18	male	right	Other	112	n93_2_p3_1_mono.wav	le r'vercle	no	no	r	yes	1623	1	yes
1	A1	1	17	18	male	right	Other	113	f26_0_p1_1_mono.wav	la ville	no	yes	NA	no	1181	5	yes
1	A1	1	17	18	male	right	Other	114	n18_1_p3_1_mono.wav	le reclin	no	no	u	yes	2278	1	yes
1	A1	1	17	18	male	right	Other	115	n32_0_p1_1_mono.wav	l'heule	no	no	NA	no	2068	1	yes
1	A1	1	17	18	male	right	Other	116	t01_2_p4_2_mono.wav	la b'lette	yes	yes	r	yes	3545	1	no
1	A1	1	17	18	male	right	Other	117	n23_2_p1_1_mono.wav	la s'pave	no	no	r	yes	2970	1	yes
1	A1	1	17	18	male	right	Other	118	t02_1_p1_2_mono.wav	la levrette	yes	yes	u	yes	2006	5	yes
1	A1	1	17	18	male	right	Other	119	n30_0_p2_1_mono.wav	le pien	no	no	NA	no	2531	1	yes
1	A1	1	17	18	male	right	Other	120	f39_0_p1_1_mono.wav	l'histoire	no	yes	NA	no	4584	1	no
1	A1	1	17	18	male	right	Other	121	t08_1_p3_2_mono.wav	la semelle	yes	yes	u	yes	1953	5	yes
1	A1	1	17	18	male	right	Other	122	f63_2_p4_1_mono.wav	le ch'val	no	yes	r	yes	2475	1	no
1	A1	1	17	18	male	right	Other	123	n16_2_p4_1_mono.wav	la p'doche	no	no	r	yes	4352	1	yes
1	A1	1	17	18	male	right	Other	124	t07_2_p1_2_mono.wav	la b'daine	yes	yes	r	yes	3454	1	no
1	A1	1	17	18	male	right	Other	125	f17_0_p4_1_mono.wav	l'accord	no	yes	NA	no	1913	5	yes
1	A1	1	17	18	male	right	Other	126	t13_2_p3_2_mono.wav	le s'vrage	yes	yes	r	yes	4611	1	no
1	A1	1	17	18	male	right	Other	127	f10_0_p2_1_mono.wav	le chat	no	yes	NA	no	4381	1	no
1	A1	1	17	18	male	right	Other	128	n48_0_p2_1_mono.wav	la mainou	no	no	NA	no	1794	5	no
1	A1	1	17	18	male	right	Other	129	f11_0_p2_1_mono.wav	le milieu	no	yes	NA	no	1392	5	yes
1	A1	1	17	18	male	right	Other	130	n46_0_p1_1_mono.wav	la jourcie	no	no	NA	no	2336	1	yes
1	A1	1	17	18	male	right	Other	131	f37_0_p2_1_mono.wav	l'amour	no	yes	NA	no	1470	5	yes
1	A1	1	17	18	male	right	Other	132	n53_0_p1_1_mono.wav	le frolège	no	no	NA	no	1403	1	yes
1	A1	1	17	18	male	right	Other	133	n88_1_p2_1_mono.wav	le messin	no	no	u	yes	2251	1	yes
1	A1	1	17	18	male	right	Other	134	n47_0_p4_1_mono.wav	la nure	no	no	NA	no	2723	1	yes
1	A1	1	17	18	male	right	Other	135	n56_0_p3_1_mono.wav	le mossu	no	no	NA	no	3005	1	yes
1	A1	1	17	18	male	right	Other	136	t03_2_p2_2_mono.wav	la m'notte	yes	yes	r	yes	1683	5	yes
1	A1	1	17	18	male	right	Other	137	n72_0_p3_1_mono.wav	la teune	no	no	NA	no	1736	1	yes
1	A1	1	17	18	male	right	Other	138	f35_0_p4_1_mono.wav	le soldat	no	yes	NA	no	1659	1	no
1	A1	1	17	18	male	right	Other	139	t06_1_p1_2_mono.wav	le recel	yes	yes	u	yes	1587	5	yes
1	A1	1	17	18	male	right	Other	140	f25_0_p3_1_mono.wav	la question	no	yes	NA	no	1476	1	no
1	A1	1	17	18	male	right	Other	141	n14_1_p1_1_mono.wav	la chemaille	no	no	u	yes	2963	1	yes
1	A1	1	17	18	male	right	Other	142	n79_0_p4_1_mono.wav	le tavre	no	no	NA	no	3120	1	yes
1	A1	1	17	18	male	right	Other	143	f08_0_p4_1_mono.wav	l'heure	no	yes	NA	no	2656	5	yes
1	A1	1	17	18	male	right	Other	144	f33_0_p4_1_mono.wav	le rapport	no	yes	NA	no	1332	5	yes
1	A1	1	17	18	male	right	Other	145	n12_1_p1_1_mono.wav	le rechant	no	no	u	yes	2513	1	yes
1	A1	1	17	18	male	right	Other	146	f05_0_p2_1_mono.wav	le chien	no	yes	NA	no	1244	5	yes
1	A1	1	17	18	male	right	Other	147	f16_0_p4_1_mono.wav	l'école	no	yes	NA	no	1019	5	yes
1	A1	1	17	18	male	right	Other	148	t05_2_p3_2_mono.wav	le g'nièvre	yes	yes	r	yes	1295	5	yes
1	A1	1	17	18	male	right	Other	149	n25_0_p1_1_mono.wav	l'incre	no	no	NA	no	2368	1	yes
1	A1	1	17	18	male	right	Other	150	f49_0_p2_1_mono.wav	le bureau	no	yes	NA	no	1121	5	yes
1	A1	1	17	18	male	right	Other	151	n51_0_p4_1_mono.wav	le caffant	no	no	NA	no	1224	1	yes
1	A1	1	17	18	male	right	Other	152	n81_0_p1_1_mono.wav	le croux	no	no	NA	no	2213	1	yes
1	A1	1	17	18	male	right	Other	153	n66_0_p2_1_mono.wav	la cance	no	no	NA	no	2245	1	yes
1	A1	1	17	18	male	right	Other	154	f60_0_p1_1_mono.wav	le tour	no	yes	NA	no	1621	5	yes
1	A1	1	17	18	male	right	Other	155	f12_0_p4_1_mono.wav	le monde	no	yes	NA	no	1384	5	yes
1	A1	1	17	18	male	right	Other	156	f52_0_p2_1_mono.wav	le genre	no	yes	NA	no	3817	1	no
1	A1	1	17	18	male	right	Other	157	t09_2_p2_2_mono.wav	le f'nouil	yes	yes	r	yes	2491	1	no
1	A1	1	17	18	male	right	Other	158	n82_0_p2_1_mono.wav	le sermite	no	no	NA	no	2675	1	yes
1	A1	1	17	18	male	right	Other	159	n10_2_p3_1_mono.wav	le r'got	no	no	r	yes	2908	1	yes
1	A1	1	17	18	male	right	Other	160	n08_2_p2_1_mono.wav	la s'cotte	no	no	r	yes	3404	1	yes
1	A1	1	17	18	male	right	Other	161	n04_2_p4_1_mono.wav	la r'noise	no	no	r	yes	2458	1	yes
1	A1	1	17	18	male	right	Other	162	n85_2_p1_1_mono.wav	le s'funt	no	no	r	yes	3115	1	yes
1	A1	1	17	18	male	right	Other	163	n55_0_p3_1_mono.wav	le nourd	no	no	NA	no	4308	1	yes
1	A1	1	17	18	male	right	Other	164	t19_2_p2_2_mono.wav	le ch'nil	yes	yes	r	yes	1586	5	yes
1	A1	1	17	18	male	right	Other	165	f15_0_p3_1_mono.wav	le train	no	yes	NA	no	1509	1	no
1	A1	1	17	18	male	right	Other	166	t20_1_p3_2_mono.wav	le meneau	yes	yes	u	yes	4897	1	no
1	A1	1	17	18	male	right	Other	167	n07_1_p2_1_mono.wav	la bechesse	no	no	u	yes	1838	1	yes
1	A1	1	17	18	male	right	Other	168	f51_0_p3_1_mono.wav	le chef	no	yes	NA	no	1523	5	yes
1	A1	1	17	18	male	right	Other	169	f14_0_p2_1_mono.wav	le soir	no	yes	NA	no	4905	1	no
1	A1	1	17	18	male	right	Other	170	n83_0_p4_1_mono.wav	le sogueil	no	no	NA	no	2136	1	yes
1	A1	1	17	18	male	right	Other	171	n28_0_p1_1_mono.wav	la veure	no	no	NA	no	2540	1	yes
1	A1	1	17	18	male	right	Other	172	f43_0_p4_1_mono.wav	la femme	no	yes	NA	no	5478	1	no
1	A1	1	17	18	male	right	Other	173	n54_0_p1_1_mono.wav	le garfait	no	no	NA	no	2219	1	yes
1	A1	1	17	18	male	right	Other	174	n68_0_p3_1_mono.wav	la moucle	no	no	NA	no	2740	1	yes
1	A1	1	17	18	male	right	Other	175	f06_0_p2_1_mono.wav	le point	no	yes	NA	no	1504	5	yes
1	A1	1	17	18	male	right	Other	176	f48_0_p3_1_mono.wav	la scène	no	yes	NA	no	4144	1	no
1	A1	1	17	18	male	right	Other	177	t12_1_p4_2_mono.wav	le requin	yes	yes	u	yes	1441	5	yes
1	A1	1	17	18	male	right	Other	178	n84_0_p4_1_mono.wav	le vort	no	no	NA	no	2270	1	yes
1	A1	1	17	18	male	right	Other	179	n37_0_p4_1_mono.wav	le padiot	no	no	NA	no	2018	1	yes
1	A1	1	17	18	male	right	Other	180	t17_2_p4_2_mono.wav	la s'moule	yes	yes	r	yes	6221	1	no
1	A1	1	17	18	male	right	Other	181	n95_2_p4_1_mono.wav	le r'pus	no	no	r	yes	2895	1	yes
1	A1	1	17	18	male	right	Other	182	n92_2_p4_1_mono.wav	le r'gure	no	no	r	yes	2462	1	yes
1	A1	1	17	18	male	right	Other	183	n41_0_p2_1_mono.wav	l'agime	no	no	NA	no	2887	1	yes
1	A1	1	17	18	male	right	Other	184	f69_2_p2_1_mono.wav	le r'gistre	no	yes	r	yes	2153	1	no
1	A1	1	17	18	male	right	Other	185	f07_0_p4_1_mono.wav	l'année	no	yes	NA	no	3153	1	no
1	A1	1	17	18	male	right	Other	186	n21_2_p1_1_mono.wav	le r'pèze	no	no	r	yes	2852	1	yes
1	A1	1	17	18	male	right	Other	187	f28_0_p4_1_mono.wav	le frère	no	yes	NA	no	1571	5	yes
1	A1	1	17	18	male	right	Other	188	f64_1_p3_1_mono.wav	le melon	no	yes	u	yes	3534	1	no
1	A1	1	17	18	male	right	Other	189	n26_0_p4_1_mono.wav	la jun	no	no	NA	no	6948	1	yes
1	A1	1	17	18	male	right	Other	190	f68_2_p4_1_mono.wav	le r'tard	no	yes	r	yes	3572	1	no
1	A1	1	17	18	male	right	Other	191	n15_1_p1_1_mono.wav	la pessade	no	no	u	yes	1837	1	yes
1	A1	1	17	18	male	right	Other	192	t18_1_p2_2_mono.wav	le reflet	yes	yes	u	yes	1318	5	yes
1	A1	2	18	21	male	right	Other	1	f66_2_p2_1_mono.wav	le d'main	no	yes	r	yes	2346	1	no
1	A1	2	18	21	male	right	Other	2	n75_0_p2_1_mono.wav	le fège	no	no	NA	no	1844	1	yes
1	A1	2	18	21	male	right	Other	3	f34_0_p1_1_mono.wav	le silence	no	yes	NA	no	1351	5	yes
1	A1	2	18	21	male	right	Other	4	f72_1_p1_1_mono.wav	la revanche	no	yes	u	yes	24859	5	yes
1	A1	2	18	21	male	right	Other	5	n29_0_p2_1_mono.wav	le choint	no	no	NA	no	2550	1	yes
1	A1	2	18	21	male	right	Other	6	f67_1_p3_1_mono.wav	le refuge	no	yes	u	yes	1875	1	no
1	A1	2	18	21	male	right	Other	7	f32_0_p4_1_mono.wav	le moment	no	yes	NA	no	1209	1	no
1	A1	2	18	21	male	right	Other	8	n73_0_p1_1_mono.wav	le buveau	no	no	NA	no	1414	5	no
1	A1	2	18	21	male	right	Other	9	n03_1_p1_1_mono.wav	la mequisse	no	no	u	yes	1891	1	yes
1	A1	2	18	21	male	right	Other	10	f50_0_p2_1_mono.wav	le café	no	yes	NA	no	1237	5	yes
1	A1	2	18	21	male	right	Other	11	f30_0_p4_1_mono.wav	le garçon	no	yes	NA	no	1209	5	yes
1	A1	2	18	21	male	right	Other	12	n58_0_p1_1_mono.wav	la siture	no	no	NA	no	1404	1	yes
1	A1	2	18	21	male	right	Other	13	n22_2_p3_1_mono.wav	le r'logue	no	no	r	yes	1217	1	yes
1	A1	2	18	21	male	right	Other	14	n74_0_p1_1_mono.wav	le camont	no	no	NA	no	1795	1	yes
1	A1	2	18	21	male	right	Other	15	f61_1_p3_1_mono.wav	le semi	no	yes	u	yes	1296	1	no
1	A1	2	18	21	male	right	Other	16	n31_0_p1_1_mono.wav	l'annue	no	no	NA	no	2084	1	yes
1	A1	2	18	21	male	right	Other	17	n01_2_p1_1_mono.wav	la b'rasse	no	no	r	yes	1393	1	yes
1	A1	2	18	21	male	right	Other	18	f62_1_p1_1_mono.wav	le ressort	no	yes	u	yes	1854	1	no
1	A1	2	18	21	male	right	Other	19	n96_1_p2_1_mono.wav	la refare	no	no	u	yes	1971	1	yes
1	A1	2	18	21	male	right	Other	20	n70_0_p1_1_mono.wav	la nale	no	no	NA	no	1982	1	yes
1	A1	2	18	21	male	right	Other	21	f04_0_p2_1_mono.wav	la soeur	no	yes	NA	no	1189	5	yes
1	A1	2	18	21	male	right	Other	22	n89_1_p3_1_mono.wav	le rebil	no	no	u	yes	1640	1	yes
1	A1	2	18	21	male	right	Other	23	n60_0_p1_1_mono.wav	le tinge	no	no	NA	no	1361	1	yes
1	A1	2	18	21	male	right	Other	24	t22_1_p4_2_mono.wav	le renard	yes	yes	u	yes	1544	5	yes
1	A1	2	18	21	male	right	Other	25	n91_2_p3_1_mono.wav	le r'lide	no	no	r	yes	1538	1	yes
1	A1	2	18	21	male	right	Other	26	f71_2_p1_1_mono.wav	le r'cord	no	yes	r	yes	1278	1	no
1	A1	2	18	21	male	right	Other	27	f03_0_p4_1_mono.wav	la nuit	no	yes	NA	no	1498	5	yes
1	A1	2	18	21	male	right	Other	28	n05_1_p4_1_mono.wav	le gegnoble	no	no	u	yes	2317	1	yes
1	A1	2	18	21	male	right	Other	29	n49_0_p2_1_mono.wav	la questier	no	no	NA	no	1454	1	yes
1	A1	2	18	21	male	right	Other	30	n27_0_p2_1_mono.wav	la tuit	no	no	NA	no	2314	5	no
1	A1	2	18	21	male	right	Other	31	n39_0_p2_1_mono.wav	le grat	no	no	NA	no	1268	1	yes
1	A1	2	18	21	male	right	Other	32	f19_0_p2_1_mono.wav	l'idée	no	yes	NA	no	1787	1	no
1	A1	2	18	21	male	right	Other	33	n02_2_p2_1_mono.wav	la l'druche	no	no	r	yes	1390	1	yes
1	A1	2	18	21	male	right	Other	34	f41_0_p4_1_mono.wav	la carte	no	yes	NA	no	1345	5	yes
1	A1	2	18	21	male	right	Other	35	f47_0_p2_1_mono.wav	la route	no	yes	NA	no	1337	5	yes
1	A1	2	18	21	male	right	Other	36	n09_2_p1_1_mono.wav	le f'mmeil	no	no	r	yes	1564	1	yes
1	A1	2	18	21	male	right	Other	37	t11_2_p3_2_mono.wav	le r'mous	yes	yes	r	yes	2127	1	no
1	A1	2	18	21	male	right	Other	38	n90_2_p2_1_mono.wav	le d'sseau	no	no	r	yes	1263	1	yes
1	A1	2	18	21	male	right	Other	39	f01_0_p4_1_mono.wav	l'oncle	no	yes	NA	no	1231	1	no
1	A1	2	18	21	male	right	Other	40	f44_0_p1_1_mono.wav	la lettre	no	yes	NA	no	1271	5	yes
1	A1	2	18	21	male	right	Other	41	n33_0_p2_1_mono.wav	la juisse	no	no	NA	no	1206	5	no
1	A1	2	18	21	male	right	Other	42	n44_0_p1_1_mono.wav	la fanouille	no	no	NA	no	1399	1	yes
1	A1	2	18	21	male	right	Other	43	n65_0_p4_1_mono.wav	la murte	no	no	NA	no	1669	5	no
1	A1	2	18	21	male	right	Other	44	n62_0_p4_1_mono.wav	l'hosor	no	no	NA	no	1355	1	yes
1	A1	2	18	21	male	right	Other	45	f70_1_p1_1_mono.wav	le semestre	no	yes	u	yes	1360	1	no
1	A1	2	18	21	male	right	Other	46	t21_2_p3_2_mono.wav	le r'cul	yes	yes	r	yes	1046	1	no
1	A1	2	18	21	male	right	Other	47	n69_0_p1_1_mono.wav	la madaine	no	no	NA	no	1371	5	no
1	A1	2	18	21	male	right	Other	48	f55_0_p4_1_mono.wav	le livre	no	yes	NA	no	1357	5	yes
1	A1	2	18	21	male	right	Other	49	f27_0_p1_1_mono.wav	le cadeau	no	yes	NA	no	1008	5	yes
1	A1	2	18	21	male	right	Other	50	n50_0_p2_1_mono.wav	la rille	no	no	NA	no	1165	1	yes
1	A1	2	18	21	male	right	Other	51	f45_0_p2_1_mono.wav	la madame	no	yes	NA	no	917	5	yes
1	A1	2	18	21	male	right	Other	52	n20_1_p1_1_mono.wav	le mejet	no	no	u	yes	1532	5	no
1	A1	2	18	21	male	right	Other	53	n35_0_p3_1_mono.wav	le missien	no	no	NA	no	1537	1	yes
1	A1	2	18	21	male	right	Other	54	n19_1_p3_1_mono.wav	le chedel	no	no	u	yes	1134	1	yes
1	A1	2	18	21	male	right	Other	55	n63_0_p1_1_mono.wav	la histienne	no	no	NA	no	1139	1	yes
1	A1	2	18	21	male	right	Other	56	f18_0_p3_1_mono.wav	l'enfant	no	yes	NA	no	1118	5	yes
1	A1	2	18	21	male	right	Other	57	n64_0_p3_1_mono.wav	l'oune	no	no	NA	no	912	1	yes
1	A1	2	18	21	male	right	Other	58	n52_0_p2_1_mono.wav	le drère	no	no	NA	no	1331	1	yes
1	A1	2	18	21	male	right	Other	59	n11_1_p4_1_mono.wav	le refant	no	no	u	yes	1630	1	yes
1	A1	2	18	21	male	right	Other	60	n61_0_p3_1_mono.wav	l'apure	no	no	NA	no	2126	1	yes
1	A1	2	18	21	male	right	Other	61	t24_1_p2_2_mono.wav	le faisan	yes	yes	u	yes	1394	1	no
1	A1	2	18	21	male	right	Other	62	f57_0_p2_1_mono.wav	le prix	no	yes	NA	no	1599	1	no
1	A1	2	18	21	male	right	Other	63	f53_0_p2_1_mono.wav	le groupe	no	yes	NA	no	1405	1	no
1	A1	2	18	21	male	right	Other	64	n86_1_p3_1_mono.wav	le repire	no	no	u	yes	1945	5	no
1	A1	2	18	21	male	right	Other	65	n76_0_p4_1_mono.wav	le tenre	no	no	NA	no	1030	1	yes
1	A1	2	18	21	male	right	Other	66	t15_2_p2_2_mono.wav	la p'louse	yes	yes	r	yes	2021	5	yes
1	A1	2	18	21	male	right	Other	67	n17_2_p4_1_mono.wav	la s'gence	no	no	r	yes	1106	1	yes
1	A1	2	18	21	male	right	Other	68	t10_1_p1_2_mono.wav	le rebond	yes	yes	u	yes	1657	1	no
1	A1	2	18	21	male	right	Other	69	n34_0_p3_1_mono.wav	le teau	no	no	NA	no	2409	1	yes
1	A1	2	18	21	male	right	Other	70	f40_0_p1_1_mono.wav	l'homme	no	yes	NA	no	1313	1	no
1	A1	2	18	21	male	right	Other	71	f58_0_p1_1_mono.wav	le service	no	yes	NA	no	1838	1	no
1	A1	2	18	21	male	right	Other	72	n13_1_p2_1_mono.wav	le seblème	no	no	u	yes	1255	5	no
1	A1	2	18	21	male	right	Other	73	n94_1_p2_1_mono.wav	le sequestre	no	no	u	yes	1087	1	yes
1	A1	2	18	21	male	right	Other	74	n57_0_p1_1_mono.wav	le ratime	no	no	NA	no	1390	1	yes
1	A1	2	18	21	male	right	Other	75	n77_0_p4_1_mono.wav	le bruc	no	no	NA	no	1453	5	no
1	A1	2	18	21	male	right	Other	76	f24_0_p2_1_mono.wav	la maison	no	yes	NA	no	1221	5	yes
1	A1	2	18	21	male	right	Other	77	n45_0_p3_1_mono.wav	la horgune	no	no	NA	no	1432	1	yes
1	A1	2	18	21	male	right	Other	78	t04_1_p1_2_mono.wav	la reliure	yes	yes	u	yes	1806	5	yes
1	A1	2	18	21	male	right	Other	79	f31_0_p3_1_mono.wav	le jour	no	yes	NA	no	1045	5	yes
1	A1	2	18	21	male	right	Other	80	n24_2_p4_1_mono.wav	le f'quon	no	no	r	yes	1392	1	yes
1	A1	2	18	21	male	right	Other	81	n40_0_p3_1_mono.wav	l'équise	no	no	NA	no	1172	1	yes
1	A1	2	18	21	male	right	Other	82	n59_0_p4_1_mono.wav	le solti	no	no	NA	no	1003	1	yes
1	A1	2	18	21	male	right	Other	83	t16_1_p1_2_mono.wav	la peluche	yes	yes	u	yes	963	1	no
1	A1	2	18	21	male	right	Other	84	f13_0_p4_1_mono.wav	le papier	no	yes	NA	no	1369	1	no
1	A1	2	18	21	male	right	Other	85	f22_0_p3_1_mono.wav	la journée	no	yes	NA	no	1071	5	yes
1	A1	2	18	21	male	right	Other	86	f59_0_p2_1_mono.wav	le soleil	no	yes	NA	no	998	5	yes
1	A1	2	18	21	male	right	Other	87	f42_0_p1_1_mono.wav	la chance	no	yes	NA	no	1136	5	yes
1	A1	2	18	21	male	right	Other	88	n80_0_p2_1_mono.wav	le péhut	no	no	NA	no	1246	1	yes
1	A1	2	18	21	male	right	Other	89	n67_0_p2_1_mono.wav	la janne	no	no	NA	no	1021	1	yes
1	A1	2	18	21	male	right	Other	90	f54_0_p1_1_mono.wav	le journal	no	yes	NA	no	1208	5	yes
1	A1	2	18	21	male	right	Other	91	f02_0_p2_1_mono.wav	la main	no	yes	NA	no	1417	5	yes
1	A1	2	18	21	male	right	Other	92	t14_1_p2_2_mono.wav	la chenille	yes	yes	u	yes	1056	1	no
1	A1	2	18	21	male	right	Other	93	n42_0_p1_1_mono.wav	l'endos	no	no	NA	no	1910	1	yes
1	A1	2	18	21	male	right	Other	94	f29_0_p3_1_mono.wav	le fromage	no	yes	NA	no	1091	5	yes
1	A1	2	18	21	male	right	Other	95	n38_0_p2_1_mono.wav	le suir	no	no	NA	no	1972	1	yes
1	A1	2	18	21	male	right	Other	96	f65_2_p1_1_mono.wav	le r'paire	no	yes	r	yes	1219	1	no
1	A1	2	18	21	male	right	Other	97	f56_0_p3_1_mono.wav	le pays	no	yes	NA	no	1094	1	no
1	A1	2	18	21	male	right	Other	98	n06_1_p2_1_mono.wav	le retal	no	no	u	yes	1647	1	yes
1	A1	2	18	21	male	right	Other	99	f21_0_p1_1_mono.wav	la horloge	no	yes	NA	no	1007	1	no
1	A1	2	18	21	male	right	Other	100	t23_2_p2_2_mono.wav	la s'cousse	yes	yes	r	yes	1592	1	no
1	A1	2	18	21	male	right	Other	101	f46_0_p1_1_mono.wav	la part	no	yes	NA	no	1421	1	no
1	A1	2	18	21	male	right	Other	102	n87_1_p3_1_mono.wav	le chenache	no	no	u	yes	1188	1	yes
1	A1	2	18	21	male	right	Other	103	n43_0_p2_1_mono.wav	l'ivée	no	no	NA	no	1356	1	yes
1	A1	2	18	21	male	right	Other	104	n71_0_p3_1_mono.wav	la foite	no	no	NA	no	1494	1	yes
1	A1	2	18	21	male	right	Other	105	n36_0_p1_1_mono.wav	le linde	no	no	NA	no	1453	1	yes
1	A1	2	18	21	male	right	Other	106	n78_0_p1_1_mono.wav	le jourlingue	no	no	NA	no	1242	1	yes
1	A1	2	18	21	male	right	Other	107	f23_0_p1_1_mono.wav	la mère	no	yes	NA	no	916	5	yes
1	A1	2	18	21	male	right	Other	108	f09_0_p2_1_mono.wav	la pièce	no	yes	NA	no	1122	1	no
1	A1	2	18	21	male	right	Other	109	f36_0_p1_1_mono.wav	le type	no	yes	NA	no	1406	1	no
1	A1	2	18	21	male	right	Other	110	f38_0_p3_1_mono.wav	l'hôtel	no	yes	NA	no	1364	5	yes
1	A1	2	18	21	male	right	Other	111	f20_0_p3_1_mono.wav	la famille	no	yes	NA	no	2332	1	no
1	A1	2	18	21	male	right	Other	112	n93_2_p3_1_mono.wav	le r'vercle	no	no	r	yes	2103	1	yes
1	A1	2	18	21	male	right	Other	113	f26_0_p1_1_mono.wav	la ville	no	yes	NA	no	1057	5	yes
1	A1	2	18	21	male	right	Other	114	n18_1_p3_1_mono.wav	le reclin	no	no	u	yes	1273	1	yes
1	A1	2	18	21	male	right	Other	115	n32_0_p1_1_mono.wav	l'heule	no	no	NA	no	1098	1	yes
1	A1	2	18	21	male	right	Other	116	t01_2_p4_2_mono.wav	la b'lette	yes	yes	r	yes	1622	5	yes
1	A1	2	18	21	male	right	Other	117	n23_2_p1_1_mono.wav	la s'pave	no	no	r	yes	1327	1	yes
1	A1	2	18	21	male	right	Other	118	t02_1_p1_2_mono.wav	la levrette	yes	yes	u	yes	1615	5	yes
1	A1	2	18	21	male	right	Other	119	n30_0_p2_1_mono.wav	le pien	no	no	NA	no	1014	1	yes
1	A1	2	18	21	male	right	Other	120	f39_0_p1_1_mono.wav	l'histoire	no	yes	NA	no	1099	1	no
1	A1	2	18	21	male	right	Other	121	t08_1_p3_2_mono.wav	la semelle	yes	yes	u	yes	1486	1	no
1	A1	2	18	21	male	right	Other	122	f63_2_p4_1_mono.wav	le ch'val	no	yes	r	yes	1224	1	no
1	A1	2	18	21	male	right	Other	123	n16_2_p4_1_mono.wav	la p'doche	no	no	r	yes	1263	1	yes
1	A1	2	18	21	male	right	Other	124	t07_2_p1_2_mono.wav	la b'daine	yes	yes	r	yes	985	1	no
1	A1	2	18	21	male	right	Other	125	f17_0_p4_1_mono.wav	l'accord	no	yes	NA	no	1927	1	no
1	A1	2	18	21	male	right	Other	126	t13_2_p3_2_mono.wav	le s'vrage	yes	yes	r	yes	1534	1	no
1	A1	2	18	21	male	right	Other	127	f10_0_p2_1_mono.wav	le chat	no	yes	NA	no	1112	1	no
1	A1	2	18	21	male	right	Other	128	n48_0_p2_1_mono.wav	la mainou	no	no	NA	no	1950	5	no
1	A1	2	18	21	male	right	Other	129	f11_0_p2_1_mono.wav	le milieu	no	yes	NA	no	1215	1	no
1	A1	2	18	21	male	right	Other	130	n46_0_p1_1_mono.wav	la jourcie	no	no	NA	no	1149	1	yes
1	A1	2	18	21	male	right	Other	131	f37_0_p2_1_mono.wav	l'amour	no	yes	NA	no	1470	5	yes
1	A1	2	18	21	male	right	Other	132	n53_0_p1_1_mono.wav	le frolège	no	no	NA	no	1335	1	yes
1	A1	2	18	21	male	right	Other	133	n88_1_p2_1_mono.wav	le messin	no	no	u	yes	1171	1	yes
1	A1	2	18	21	male	right	Other	134	n47_0_p4_1_mono.wav	la nure	no	no	NA	no	1141	1	yes
1	A1	2	18	21	male	right	Other	135	n56_0_p3_1_mono.wav	le mossu	no	no	NA	no	1080	1	yes
1	A1	2	18	21	male	right	Other	136	t03_2_p2_2_mono.wav	la m'notte	yes	yes	r	yes	1031	1	no
1	A1	2	18	21	male	right	Other	137	n72_0_p3_1_mono.wav	la teune	no	no	NA	no	1095	1	yes
1	A1	2	18	21	male	right	Other	138	f35_0_p4_1_mono.wav	le soldat	no	yes	NA	no	1328	5	yes
1	A1	2	18	21	male	right	Other	139	t06_1_p1_2_mono.wav	le recel	yes	yes	u	yes	1711	1	no
1	A1	2	18	21	male	right	Other	140	f25_0_p3_1_mono.wav	la question	no	yes	NA	no	963	1	no
1	A1	2	18	21	male	right	Other	141	n14_1_p1_1_mono.wav	la chemaille	no	no	u	yes	1147	1	yes
1	A1	2	18	21	male	right	Other	142	n79_0_p4_1_mono.wav	le tavre	no	no	NA	no	1458	1	yes
1	A1	2	18	21	male	right	Other	143	f08_0_p4_1_mono.wav	l'heure	no	yes	NA	no	944	1	no
1	A1	2	18	21	male	right	Other	144	f33_0_p4_1_mono.wav	le rapport	no	yes	NA	no	1761	5	yes
1	A1	2	18	21	male	right	Other	145	n12_1_p1_1_mono.wav	le rechant	no	no	u	yes	984	1	yes
1	A1	2	18	21	male	right	Other	146	f05_0_p2_1_mono.wav	le chien	no	yes	NA	no	1035	1	no
1	A1	2	18	21	male	right	Other	147	f16_0_p4_1_mono.wav	l'école	no	yes	NA	no	1222	5	yes
1	A1	2	18	21	male	right	Other	148	t05_2_p3_2_mono.wav	le g'nièvre	yes	yes	r	yes	1342	1	no
1	A1	2	18	21	male	right	Other	149	n25_0_p1_1_mono.wav	l'incre	no	no	NA	no	967	1	yes
1	A1	2	18	21	male	right	Other	150	f49_0_p2_1_mono.wav	le bureau	no	yes	NA	no	928	5	yes
1	A1	2	18	21	male	right	Other	151	n51_0_p4_1_mono.wav	le caffant	no	no	NA	no	1265	1	yes
1	A1	2	18	21	male	right	Other	152	n81_0_p1_1_mono.wav	le croux	no	no	NA	no	1230	1	yes
1	A1	2	18	21	male	right	Other	153	n66_0_p2_1_mono.wav	la cance	no	no	NA	no	1472	1	yes
1	A1	2	18	21	male	right	Other	154	f60_0_p1_1_mono.wav	le tour	no	yes	NA	no	1328	5	yes
1	A1	2	18	21	male	right	Other	155	f12_0_p4_1_mono.wav	le monde	no	yes	NA	no	923	5	yes
1	A1	2	18	21	male	right	Other	156	f52_0_p2_1_mono.wav	le genre	no	yes	NA	no	1472	1	no
1	A1	2	18	21	male	right	Other	157	t09_2_p2_2_mono.wav	le f'nouil	yes	yes	r	yes	1055	1	no
1	A1	2	18	21	male	right	Other	158	n82_0_p2_1_mono.wav	le sermite	no	no	NA	no	1993	1	yes
1	A1	2	18	21	male	right	Other	159	n10_2_p3_1_mono.wav	le r'got	no	no	r	yes	2007	1	yes
1	A1	2	18	21	male	right	Other	160	n08_2_p2_1_mono.wav	la s'cotte	no	no	r	yes	1741	1	yes
1	A1	2	18	21	male	right	Other	161	n04_2_p4_1_mono.wav	la r'noise	no	no	r	yes	2108	1	yes
1	A1	2	18	21	male	right	Other	162	n85_2_p1_1_mono.wav	le s'funt	no	no	r	yes	1674	1	yes
1	A1	2	18	21	male	right	Other	163	n55_0_p3_1_mono.wav	le nourd	no	no	NA	no	1562	1	yes
1	A1	2	18	21	male	right	Other	164	t19_2_p2_2_mono.wav	le ch'nil	yes	yes	r	yes	1602	1	no
1	A1	2	18	21	male	right	Other	165	f15_0_p3_1_mono.wav	le train	no	yes	NA	no	2445	1	no
1	A1	2	18	21	male	right	Other	166	t20_1_p3_2_mono.wav	le meneau	yes	yes	u	yes	1369	5	yes
1	A1	2	18	21	male	right	Other	167	n07_1_p2_1_mono.wav	la bechesse	no	no	u	yes	2351	1	yes
1	A1	2	18	21	male	right	Other	168	f51_0_p3_1_mono.wav	le chef	no	yes	NA	no	1560	5	yes
1	A1	2	18	21	male	right	Other	169	f14_0_p2_1_mono.wav	le soir	no	yes	NA	no	1320	5	yes
1	A1	2	18	21	male	right	Other	170	n83_0_p4_1_mono.wav	le sogueil	no	no	NA	no	915	1	yes
1	A1	2	18	21	male	right	Other	171	n28_0_p1_1_mono.wav	la veure	no	no	NA	no	935	1	yes
1	A1	2	18	21	male	right	Other	172	f43_0_p4_1_mono.wav	la femme	no	yes	NA	no	1225	5	yes
1	A1	2	18	21	male	right	Other	173	n54_0_p1_1_mono.wav	le garfait	no	no	NA	no	1406	1	yes
1	A1	2	18	21	male	right	Other	174	n68_0_p3_1_mono.wav	la moucle	no	no	NA	no	1299	1	yes
1	A1	2	18	21	male	right	Other	175	f06_0_p2_1_mono.wav	le point	no	yes	NA	no	940	1	no
1	A1	2	18	21	male	right	Other	176	f48_0_p3_1_mono.wav	la scène	no	yes	NA	no	1049	1	no
1	A1	2	18	21	male	right	Other	177	t12_1_p4_2_mono.wav	le requin	yes	yes	u	yes	967	1	no
1	A1	2	18	21	male	right	Other	178	n84_0_p4_1_mono.wav	le vort	no	no	NA	no	831	1	yes
1	A1	2	18	21	male	right	Other	179	n37_0_p4_1_mono.wav	le padiot	no	no	NA	no	839	1	yes
1	A1	2	18	21	male	right	Other	180	t17_2_p4_2_mono.wav	la s'moule	yes	yes	r	yes	1270	1	no
1	A1	2	18	21	male	right	Other	181	n95_2_p4_1_mono.wav	le r'pus	no	no	r	yes	73	5	no
1	A1	2	18	21	male	right	Other	182	n92_2_p4_1_mono.wav	le r'gure	no	no	r	yes	1183	1	yes
1	A1	2	18	21	male	right	Other	183	n41_0_p2_1_mono.wav	l'agime	no	no	NA	no	1199	1	yes
1	A1	2	18	21	male	right	Other	184	f69_2_p2_1_mono.wav	le r'gistre	no	yes	r	yes	1835	1	no
1	A1	2	18	21	male	right	Other	185	f07_0_p4_1_mono.wav	l'année	no	yes	NA	no	1341	1	no
1	A1	2	18	21	male	right	Other	186	n21_2_p1_1_mono.wav	le r'pèze	no	no	r	yes	1880	1	yes
1	A1	2	18	21	male	right	Other	187	f28_0_p4_1_mono.wav	le frère	no	yes	NA	no	1066	5	yes
1	A1	2	18	21	male	right	Other	188	f64_1_p3_1_mono.wav	le melon	no	yes	u	yes	1644	5	yes
1	A1	2	18	21	male	right	Other	189	n26_0_p4_1_mono.wav	la jun	no	no	NA	no	1032	1	yes
1	A1	2	18	21	male	right	Other	190	f68_2_p4_1_mono.wav	le r'tard	no	yes	r	yes	1291	1	no
1	A1	2	18	21	male	right	Other	191	n15_1_p1_1_mono.wav	la pessade	no	no	u	yes	2156	1	yes
1	A1	2	18	21	male	right	Other	192	t18_1_p2_2_mono.wav	le reflet	yes	yes	u	yes	1839	1	no
1	A2	1	3	23	female	left	Other	1	f66_2_p2_1_mono.wav	le d'main	no	yes	r	yes	2642	1	yes
1	A2	1	3	23	female	left	Other	2	n75_0_p2_1_mono.wav	le fège	no	no	NA	no	2637	1	no
1	A2	1	3	23	female	left	Other	3	f34_0_p1_1_mono.wav	le silence	no	yes	NA	no	2323	1	yes
1	A2	1	3	23	female	left	Other	4	f72_1_p1_1_mono.wav	la revanche	no	yes	u	yes	2498	1	yes
1	A2	1	3	23	female	left	Other	5	n29_0_p2_1_mono.wav	le choint	no	no	NA	no	2019	5	yes
1	A2	1	3	23	female	left	Other	6	f67_1_p3_1_mono.wav	le refuge	no	yes	u	yes	2165	1	yes
1	A2	1	3	23	female	left	Other	7	f32_0_p4_1_mono.wav	le moment	no	yes	NA	no	2071	1	yes
1	A2	1	3	23	female	left	Other	8	n73_0_p1_1_mono.wav	le buveau	no	no	NA	no	1619	5	yes
1	A2	1	3	23	female	left	Other	9	n03_1_p1_1_mono.wav	la mequisse	no	no	u	yes	1870	1	no
1	A2	1	3	23	female	left	Other	10	f50_0_p2_1_mono.wav	le café	no	yes	NA	no	2170	1	yes
1	A2	1	3	23	female	left	Other	11	f30_0_p4_1_mono.wav	le garçon	no	yes	NA	no	2104	1	yes
1	A2	1	3	23	female	left	Other	12	n58_0_p1_1_mono.wav	la siture	no	no	NA	no	1735	5	yes
1	A2	1	3	23	female	left	Other	13	n22_2_p3_1_mono.wav	le r'logue	no	no	r	yes	2167	1	no
1	A2	1	3	23	female	left	Other	14	n74_0_p1_1_mono.wav	le camont	no	no	NA	no	2164	1	no
1	A2	1	3	23	female	left	Other	15	f61_1_p3_1_mono.wav	le semi	no	yes	u	yes	1475	5	no
1	A2	1	3	23	female	left	Other	16	n31_0_p1_1_mono.wav	l'annue	no	no	NA	no	1833	1	no
1	A2	1	3	23	female	left	Other	17	n01_2_p1_1_mono.wav	la b'rasse	no	no	r	yes	1844	5	yes
1	A2	1	3	23	female	left	Other	18	f62_1_p1_1_mono.wav	le ressort	no	yes	u	yes	1920	5	no
1	A2	1	3	23	female	left	Other	19	n96_1_p2_1_mono.wav	la refare	no	no	u	yes	2499	5	yes
1	A2	1	3	23	female	left	Other	20	n70_0_p1_1_mono.wav	la nale	no	no	NA	no	2650	5	yes
1	A2	1	3	23	female	left	Other	21	f04_0_p2_1_mono.wav	la soeur	no	yes	NA	no	1620	1	yes
1	A2	1	3	23	female	left	Other	22	n89_1_p3_1_mono.wav	le rebil	no	no	u	yes	1600	5	yes
1	A2	1	3	23	female	left	Other	23	n60_0_p1_1_mono.wav	le tinge	no	no	NA	no	2036	5	yes
1	A2	1	3	23	female	left	Other	24	t22_2_p3_2_mono.wav	le r'nard	yes	yes	r	yes	1547	1	yes
1	A2	1	3	23	female	left	Other	25	n91_2_p3_1_mono.wav	le r'lide	no	no	r	yes	1784	5	yes
1	A2	1	3	23	female	left	Other	26	f71_2_p1_1_mono.wav	le r'cord	no	yes	r	yes	2350	5	no
1	A2	1	3	23	female	left	Other	27	f03_0_p4_1_mono.wav	la nuit	no	yes	NA	no	1575	1	yes
1	A2	1	3	23	female	left	Other	28	n05_1_p4_1_mono.wav	le gegnoble	no	no	u	yes	2404	1	no
1	A2	1	3	23	female	left	Other	29	n49_0_p2_1_mono.wav	la questier	no	no	NA	no	2379	5	yes
1	A2	1	3	23	female	left	Other	30	n27_0_p2_1_mono.wav	la tuit	no	no	NA	no	2945	5	yes
1	A2	1	3	23	female	left	Other	31	n39_0_p2_1_mono.wav	le grat	no	no	NA	no	2176	1	no
1	A2	1	3	23	female	left	Other	32	f19_0_p2_1_mono.wav	l'idée	no	yes	NA	no	2931	1	yes
1	A2	1	3	23	female	left	Other	33	n02_2_p2_1_mono.wav	la l'druche	no	no	r	yes	1702	5	yes
1	A2	1	3	23	female	left	Other	34	f41_0_p4_1_mono.wav	la carte	no	yes	NA	no	1456	1	yes
1	A2	1	3	23	female	left	Other	35	f47_0_p2_1_mono.wav	la route	no	yes	NA	no	1741	1	yes
1	A2	1	3	23	female	left	Other	36	n09_2_p1_1_mono.wav	le f'mmeil	no	no	r	yes	1681	5	yes
1	A2	1	3	23	female	left	Other	37	t11_1_p3_2_mono.wav	le remous	yes	yes	u	yes	2639	5	no
1	A2	1	3	23	female	left	Other	38	n90_2_p2_1_mono.wav	le d'sseau	no	no	r	yes	2001	5	yes
1	A2	1	3	23	female	left	Other	39	f01_0_p4_1_mono.wav	l'oncle	no	yes	NA	no	2785	1	yes
1	A2	1	3	23	female	left	Other	40	f44_0_p1_1_mono.wav	la lettre	no	yes	NA	no	1834	1	yes
1	A2	1	3	23	female	left	Other	41	n33_0_p2_1_mono.wav	la juisse	no	no	NA	no	1319	1	no
1	A2	1	3	23	female	left	Other	42	n44_0_p1_1_mono.wav	la fanouille	no	no	NA	no	1166	1	no
1	A2	1	3	23	female	left	Other	43	n65_0_p4_1_mono.wav	la murte	no	no	NA	no	1670	5	yes
1	A2	1	3	23	female	left	Other	44	n62_0_p4_1_mono.wav	l'hosor	no	no	NA	no	1969	5	yes
1	A2	1	3	23	female	left	Other	45	f70_1_p1_1_mono.wav	le semestre	no	yes	u	yes	1778	1	yes
1	A2	1	3	23	female	left	Other	46	t21_1_p1_2_mono.wav	le recul	yes	yes	u	yes	1573	1	yes
1	A2	1	3	23	female	left	Other	47	n69_0_p1_1_mono.wav	la madaine	no	no	NA	no	2200	5	yes
1	A2	1	3	23	female	left	Other	48	f55_0_p4_1_mono.wav	le livre	no	yes	NA	no	2311	1	yes
1	A2	1	3	23	female	left	Other	49	f27_0_p1_1_mono.wav	le cadeau	no	yes	NA	no	2048	1	yes
1	A2	1	3	23	female	left	Other	50	n50_0_p2_1_mono.wav	la rille	no	no	NA	no	1956	5	yes
1	A2	1	3	23	female	left	Other	51	f45_0_p2_1_mono.wav	la madame	no	yes	NA	no	1434	1	yes
1	A2	1	3	23	female	left	Other	52	n20_1_p1_1_mono.wav	le mejet	no	no	u	yes	1824	1	no
1	A2	1	3	23	female	left	Other	53	n35_0_p3_1_mono.wav	le missien	no	no	NA	no	1690	5	yes
1	A2	1	3	23	female	left	Other	54	n19_1_p3_1_mono.wav	le chedel	no	no	u	yes	2044	5	yes
1	A2	1	3	23	female	left	Other	55	n63_0_p1_1_mono.wav	la histienne	no	no	NA	no	2539	5	yes
1	A2	1	3	23	female	left	Other	56	f18_0_p3_1_mono.wav	l'enfant	no	yes	NA	no	2118	5	no
1	A2	1	3	23	female	left	Other	57	n64_0_p3_1_mono.wav	l'oune	no	no	NA	no	1603	5	yes
1	A2	1	3	23	female	left	Other	58	n52_0_p2_1_mono.wav	le drère	no	no	NA	no	1783	5	yes
1	A2	1	3	23	female	left	Other	59	n11_1_p4_1_mono.wav	le refant	no	no	u	yes	2220	1	no
1	A2	1	3	23	female	left	Other	60	n61_0_p3_1_mono.wav	l'apure	no	no	NA	no	1617	5	yes
1	A2	1	3	23	female	left	Other	61	t24_2_p1_2_mono.wav	le f'san	yes	yes	r	yes	1839	1	yes
1	A2	1	3	23	female	left	Other	62	f57_0_p2_1_mono.wav	le prix	no	yes	NA	no	2221	1	yes
1	A2	1	3	23	female	left	Other	63	f53_0_p2_1_mono.wav	le groupe	no	yes	NA	no	1579	1	yes
1	A2	1	3	23	female	left	Other	64	n86_1_p3_1_mono.wav	le repire	no	no	u	yes	2541	5	yes
1	A2	1	3	23	female	left	Other	65	n76_0_p4_1_mono.wav	le tenre	no	no	NA	no	3068	5	yes
1	A2	1	3	23	female	left	Other	66	t15_1_p3_2_mono.wav	la pelouse	yes	yes	u	yes	1529	1	yes
1	A2	1	3	23	female	left	Other	67	n17_2_p4_1_mono.wav	la s'gence	no	no	r	yes	1959	1	no
1	A2	1	3	23	female	left	Other	68	t10_2_p2_2_mono.wav	le r'bond	yes	yes	r	yes	1652	1	yes
1	A2	1	3	23	female	left	Other	69	n34_0_p3_1_mono.wav	le teau	no	no	NA	no	1633	5	yes
1	A2	1	3	23	female	left	Other	70	f40_0_p1_1_mono.wav	l'homme	no	yes	NA	no	1870	5	no
1	A2	1	3	23	female	left	Other	71	f58_0_p1_1_mono.wav	le service	no	yes	NA	no	1460	1	yes
1	A2	1	3	23	female	left	Other	72	n13_1_p2_1_mono.wav	le seblème	no	no	u	yes	1329	1	no
1	A2	1	3	23	female	left	Other	73	n94_1_p2_1_mono.wav	le sequestre	no	no	u	yes	1731	1	no
1	A2	1	3	23	female	left	Other	74	n57_0_p1_1_mono.wav	le ratime	no	no	NA	no	1379	5	yes
1	A2	1	3	23	female	left	Other	75	n77_0_p4_1_mono.wav	le bruc	no	no	NA	no	2004	5	yes
1	A2	1	3	23	female	left	Other	76	f24_0_p2_1_mono.wav	la maison	no	yes	NA	no	1236	1	yes
1	A2	1	3	23	female	left	Other	77	n45_0_p3_1_mono.wav	la horgune	no	no	NA	no	1659	5	yes
1	A2	1	3	23	female	left	Other	78	t04_2_p1_2_mono.wav	la r'liure	yes	yes	r	yes	1792	5	no
1	A2	1	3	23	female	left	Other	79	f31_0_p3_1_mono.wav	le jour	no	yes	NA	no	1148	1	yes
1	A2	1	3	23	female	left	Other	80	n24_2_p4_1_mono.wav	le f'quon	no	no	r	yes	1544	5	yes
1	A2	1	3	23	female	left	Other	81	n40_0_p3_1_mono.wav	l'équise	no	no	NA	no	2378	1	no
1	A2	1	3	23	female	left	Other	82	n59_0_p4_1_mono.wav	le solti	no	no	NA	no	1386	1	no
1	A2	1	3	23	female	left	Other	83	t16_2_p2_2_mono.wav	la p'luche	yes	yes	r	yes	1127	1	yes
1	A2	1	3	23	female	left	Other	84	f13_0_p4_1_mono.wav	le papier	no	yes	NA	no	1360	1	yes
1	A2	1	3	23	female	left	Other	85	f22_0_p3_1_mono.wav	la journée	no	yes	NA	no	1023	1	yes
1	A2	1	3	23	female	left	Other	86	f59_0_p2_1_mono.wav	le soleil	no	yes	NA	no	869	1	yes
1	A2	1	3	23	female	left	Other	87	f42_0_p1_1_mono.wav	la chance	no	yes	NA	no	1060	1	yes
1	A2	1	3	23	female	left	Other	88	n80_0_p2_1_mono.wav	le péhut	no	no	NA	no	1628	1	no
1	A2	1	3	23	female	left	Other	89	n67_0_p2_1_mono.wav	la janne	no	no	NA	no	1435	5	yes
1	A2	1	3	23	female	left	Other	90	f54_0_p1_1_mono.wav	le journal	no	yes	NA	no	1227	1	yes
1	A2	1	3	23	female	left	Other	91	f02_0_p2_1_mono.wav	la main	no	yes	NA	no	1238	5	no
1	A2	1	3	23	female	left	Other	92	t14_2_p3_2_mono.wav	la ch'nille	yes	yes	r	yes	1690	1	yes
1	A2	1	3	23	female	left	Other	93	n42_0_p1_1_mono.wav	l'endos	no	no	NA	no	1995	5	yes
1	A2	1	3	23	female	left	Other	94	f29_0_p3_1_mono.wav	le fromage	no	yes	NA	no	1207	1	yes
1	A2	1	3	23	female	left	Other	95	n38_0_p2_1_mono.wav	le suir	no	no	NA	no	1317	1	no
1	A2	1	3	23	female	left	Other	96	f65_2_p1_1_mono.wav	le r'paire	no	yes	r	yes	1686	1	yes
1	A2	1	3	23	female	left	Other	97	f56_0_p3_1_mono.wav	le pays	no	yes	NA	no	2188	5	no
1	A2	1	3	23	female	left	Other	98	n06_1_p2_1_mono.wav	le retal	no	no	u	yes	2373	5	yes
1	A2	1	3	23	female	left	Other	99	f21_0_p1_1_mono.wav	la horloge	no	yes	NA	no	1389	1	yes
1	A2	1	3	23	female	left	Other	100	t23_1_p3_2_mono.wav	la secousse	yes	yes	u	yes	1557	1	yes
1	A2	1	3	23	female	left	Other	101	f46_0_p1_1_mono.wav	la part	no	yes	NA	no	1486	5	no
1	A2	1	3	23	female	left	Other	102	n87_1_p3_1_mono.wav	le chenache	no	no	u	yes	1859	5	yes
1	A2	1	3	23	female	left	Other	103	n43_0_p2_1_mono.wav	l'ivée	no	no	NA	no	1750	5	yes
1	A2	1	3	23	female	left	Other	104	n71_0_p3_1_mono.wav	la foite	no	no	NA	no	1806	1	no
1	A2	1	3	23	female	left	Other	105	n36_0_p1_1_mono.wav	le linde	no	no	NA	no	1279	5	yes
1	A2	1	3	23	female	left	Other	106	n78_0_p1_1_mono.wav	le jourlingue	no	no	NA	no	1411	1	no
1	A2	1	3	23	female	left	Other	107	f23_0_p1_1_mono.wav	la mère	no	yes	NA	no	1366	1	yes
1	A2	1	3	23	female	left	Other	108	f09_0_p2_1_mono.wav	la pièce	no	yes	NA	no	1152	5	no
1	A2	1	3	23	female	left	Other	109	f36_0_p1_1_mono.wav	le type	no	yes	NA	no	2184	1	yes
1	A2	1	3	23	female	left	Other	110	f38_0_p3_1_mono.wav	l'hôtel	no	yes	NA	no	1123	1	yes
1	A2	1	3	23	female	left	Other	111	f20_0_p3_1_mono.wav	la famille	no	yes	NA	no	1129	1	yes
1	A2	1	3	23	female	left	Other	112	n93_2_p3_1_mono.wav	le r'vercle	no	no	r	yes	1965	5	yes
1	A2	1	3	23	female	left	Other	113	f26_0_p1_1_mono.wav	la ville	no	yes	NA	no	2530	1	yes
1	A2	1	3	23	female	left	Other	114	n18_1_p3_1_mono.wav	le reclin	no	no	u	yes	2370	1	no
1	A2	1	3	23	female	left	Other	115	n32_0_p1_1_mono.wav	l'heule	no	no	NA	no	1320	5	yes
1	A2	1	3	23	female	left	Other	116	t01_1_p2_2_mono.wav	la belette	yes	yes	u	yes	2113	5	no
1	A2	1	3	23	female	left	Other	117	n23_2_p1_1_mono.wav	la s'pave	no	no	r	yes	1762	5	yes
1	A2	1	3	23	female	left	Other	118	t02_2_p3_2_mono.wav	la l'vrette	yes	yes	r	yes	1165	1	yes
1	A2	1	3	23	female	left	Other	119	n30_0_p2_1_mono.wav	le pien	no	no	NA	no	1461	1	no
1	A2	1	3	23	female	left	Other	120	f39_0_p1_1_mono.wav	l'histoire	no	yes	NA	no	1418	1	yes
1	A2	1	3	23	female	left	Other	121	t08_2_p4_2_mono.wav	la s'melle	yes	yes	r	yes	1115	1	yes
1	A2	1	3	23	female	left	Other	122	f63_2_p4_1_mono.wav	le ch'val	no	yes	r	yes	1815	5	no
1	A2	1	3	23	female	left	Other	123	n16_2_p4_1_mono.wav	la p'doche	no	no	r	yes	1222	5	yes
1	A2	1	3	23	female	left	Other	124	t07_1_p2_2_mono.wav	la bedaine	yes	yes	u	yes	1540	5	no
1	A2	1	3	23	female	left	Other	125	f17_0_p4_1_mono.wav	l'accord	no	yes	NA	no	2760	1	yes
1	A2	1	3	23	female	left	Other	126	t13_1_p3_2_mono.wav	le sevrage	yes	yes	u	yes	1763	1	yes
1	A2	1	3	23	female	left	Other	127	f10_0_p2_1_mono.wav	le chat	no	yes	NA	no	1455	5	no
1	A2	1	3	23	female	left	Other	128	n48_0_p2_1_mono.wav	la mainou	no	no	NA	no	2986	1	no
1	A2	1	3	23	female	left	Other	129	f11_0_p2_1_mono.wav	le milieu	no	yes	NA	no	2054	5	no
1	A2	1	3	23	female	left	Other	130	n46_0_p1_1_mono.wav	la jourcie	no	no	NA	no	2674	5	yes
1	A2	1	3	23	female	left	Other	131	f37_0_p2_1_mono.wav	l'amour	no	yes	NA	no	1257	1	yes
1	A2	1	3	23	female	left	Other	132	n53_0_p1_1_mono.wav	le frolège	no	no	NA	no	2119	5	yes
1	A2	1	3	23	female	left	Other	133	n88_1_p2_1_mono.wav	le messin	no	no	u	yes	1719	5	yes
1	A2	1	3	23	female	left	Other	134	n47_0_p4_1_mono.wav	la nure	no	no	NA	no	1289	1	no
1	A2	1	3	23	female	left	Other	135	n56_0_p3_1_mono.wav	le mossu	no	no	NA	no	1414	5	yes
1	A2	1	3	23	female	left	Other	136	t03_1_p4_2_mono.wav	la menotte	yes	yes	u	yes	1942	5	no
1	A2	1	3	23	female	left	Other	137	n72_0_p3_1_mono.wav	la teune	no	no	NA	no	1970	5	yes
1	A2	1	3	23	female	left	Other	138	f35_0_p4_1_mono.wav	le soldat	no	yes	NA	no	1589	1	yes
1	A2	1	3	23	female	left	Other	139	t06_2_p2_2_mono.wav	le r'cel	yes	yes	r	yes	1788	1	yes
1	A2	1	3	23	female	left	Other	140	f25_0_p3_1_mono.wav	la question	no	yes	NA	no	1499	1	yes
1	A2	1	3	23	female	left	Other	141	n14_1_p1_1_mono.wav	la chemaille	no	no	u	yes	1149	5	yes
1	A2	1	3	23	female	left	Other	142	n79_0_p4_1_mono.wav	le tavre	no	no	NA	no	1465	5	yes
1	A2	1	3	23	female	left	Other	143	f08_0_p4_1_mono.wav	l'heure	no	yes	NA	no	1694	1	yes
1	A2	1	3	23	female	left	Other	144	f33_0_p4_1_mono.wav	le rapport	no	yes	NA	no	1505	1	yes
1	A2	1	3	23	female	left	Other	145	n12_1_p1_1_mono.wav	le rechant	no	no	u	yes	1738	1	no
1	A2	1	3	23	female	left	Other	146	f05_0_p2_1_mono.wav	le chien	no	yes	NA	no	1087	1	yes
1	A2	1	3	23	female	left	Other	147	f16_0_p4_1_mono.wav	l'école	no	yes	NA	no	994	1	yes
1	A2	1	3	23	female	left	Other	148	t05_1_p2_2_mono.wav	le genièvre	yes	yes	u	yes	1438	1	yes
1	A2	1	3	23	female	left	Other	149	n25_0_p1_1_mono.wav	l'incre	no	no	NA	no	1133	5	yes
1	A2	1	3	23	female	left	Other	150	f49_0_p2_1_mono.wav	le bureau	no	yes	NA	no	1336	1	yes
1	A2	1	3	23	female	left	Other	151	n51_0_p4_1_mono.wav	le caffant	no	no	NA	no	2639	1	no
1	A2	1	3	23	female	left	Other	152	n81_0_p1_1_mono.wav	le croux	no	no	NA	no	1112	5	yes
1	A2	1	3	23	female	left	Other	153	n66_0_p2_1_mono.wav	la cance	no	no	NA	no	1608	5	yes
1	A2	1	3	23	female	left	Other	154	f60_0_p1_1_mono.wav	le tour	no	yes	NA	no	976	1	yes
1	A2	1	3	23	female	left	Other	155	f12_0_p4_1_mono.wav	le monde	no	yes	NA	no	1057	1	yes
1	A2	1	3	23	female	left	Other	156	f52_0_p2_1_mono.wav	le genre	no	yes	NA	no	1608	5	no
1	A2	1	3	23	female	left	Other	157	t09_1_p1_2_mono.wav	le fenouil	yes	yes	u	yes	1468	1	yes
1	A2	1	3	23	female	left	Other	158	n82_0_p2_1_mono.wav	le sermite	no	no	NA	no	1291	5	yes
1	A2	1	3	23	female	left	Other	159	n10_2_p3_1_mono.wav	le r'got	no	no	r	yes	1658	5	yes
1	A2	1	3	23	female	left	Other	160	n08_2_p2_1_mono.wav	la s'cotte	no	no	r	yes	1658	5	yes
1	A2	1	3	23	female	left	Other	161	n04_2_p4_1_mono.wav	la r'noise	no	no	r	yes	2344	5	yes
1	A2	1	3	23	female	left	Other	162	n85_2_p1_1_mono.wav	le s'funt	no	no	r	yes	1449	5	yes
1	A2	1	3	23	female	left	Other	163	n55_0_p3_1_mono.wav	le nourd	no	no	NA	no	1493	1	no
1	A2	1	3	23	female	left	Other	164	t19_1_p3_2_mono.wav	le chenil	yes	yes	u	yes	1263	1	yes
1	A2	1	3	23	female	left	Other	165	f15_0_p3_1_mono.wav	le train	no	yes	NA	no	1804	5	no
1	A2	1	3	23	female	left	Other	166	t20_2_p3_2_mono.wav	le m'neau	yes	yes	r	yes	1826	1	yes
1	A2	1	3	23	female	left	Other	167	n07_1_p2_1_mono.wav	la bechesse	no	no	u	yes	1529	5	yes
1	A2	1	3	23	female	left	Other	168	f51_0_p3_1_mono.wav	le chef	no	yes	NA	no	1550	1	yes
1	A2	1	3	23	female	left	Other	169	f14_0_p2_1_mono.wav	le soir	no	yes	NA	no	1066	1	yes
1	A2	1	3	23	female	left	Other	170	n83_0_p4_1_mono.wav	le sogueil	no	no	NA	no	1385	5	yes
1	A2	1	3	23	female	left	Other	171	n28_0_p1_1_mono.wav	la veure	no	no	NA	no	1316	5	yes
1	A2	1	3	23	female	left	Other	172	f43_0_p4_1_mono.wav	la femme	no	yes	NA	no	1465	1	yes
1	A2	1	3	23	female	left	Other	173	n54_0_p1_1_mono.wav	le garfait	no	no	NA	no	2328	5	yes
1	A2	1	3	23	female	left	Other	174	n68_0_p3_1_mono.wav	la moucle	no	no	NA	no	1286	5	yes
1	A2	1	3	23	female	left	Other	175	f06_0_p2_1_mono.wav	le point	no	yes	NA	no	1536	1	yes
1	A2	1	3	23	female	left	Other	176	f48_0_p3_1_mono.wav	la scène	no	yes	NA	no	1170	1	yes
1	A2	1	3	23	female	left	Other	177	t12_2_p4_2_mono.wav	le r'quin	yes	yes	r	yes	1102	1	yes
1	A2	1	3	23	female	left	Other	178	n84_0_p4_1_mono.wav	le vort	no	no	NA	no	1420	5	yes
1	A2	1	3	23	female	left	Other	179	n37_0_p4_1_mono.wav	le padiot	no	no	NA	no	2110	1	no
1	A2	1	3	23	female	left	Other	180	t17_1_p4_2_mono.wav	la semoule	yes	yes	u	yes	1522	1	yes
1	A2	1	3	23	female	left	Other	181	n95_2_p4_1_mono.wav	le r'pus	no	no	r	yes	2124	5	yes
1	A2	1	3	23	female	left	Other	182	n92_2_p4_1_mono.wav	le r'gure	no	no	r	yes	1295	5	yes
1	A2	1	3	23	female	left	Other	183	n41_0_p2_1_mono.wav	l'agime	no	no	NA	no	1372	5	yes
1	A2	1	3	23	female	left	Other	184	f69_2_p2_1_mono.wav	le r'gistre	no	yes	r	yes	1481	5	no
1	A2	1	3	23	female	left	Other	185	f07_0_p4_1_mono.wav	l'année	no	yes	NA	no	1383	5	no
