session	list	group	subject	age	sex	hand	assist	trial	file	stimulus	p_universal	is_target	is_word	targettype	red	is_schwa	duration	rt	rt_end	response	correctness
1	D2	2	16	19	female	right	Other	1	n76_0_p4_1_mono.wav	le tenre	NA	no	no	filler	NA	no	832.0	3436	2604	5	no
1	D2	2	16	19	female	right	Other	2	f33_0_p4_1_mono.wav	le rapport	NA	no	yes	filler	NA	no	872.0	2659	1787	1	no
1	D2	2	16	19	female	right	Other	3	n86_1_p3_1_mono.wav	le repire	NA	no	no	filler	u	yes	965.0	1412	447	5	no
1	D2	2	16	19	female	right	Other	4	n73_0_p1_1_mono.wav	le buveau	NA	no	no	filler	NA	no	615.0	1535	920	1	yes
1	D2	2	16	19	female	right	Other	5	n50_0_p2_1_mono.wav	la rille	NA	no	no	filler	NA	no	802.0	1752	950	5	no
1	D2	2	16	19	female	right	Other	6	n55_0_p3_1_mono.wav	le nourd	NA	no	no	filler	NA	no	876.0	1736	860	5	no
1	D2	2	16	19	female	right	Other	7	n44_0_p1_1_mono.wav	la fanouille	NA	no	no	filler	NA	no	852.0	1504	652	5	no
1	D2	2	16	19	female	right	Other	8	t03_2_p2_2_mono.wav	la m'notte		yes	yes	match	r	yes	889.0	1274	385	5	yes
1	D2	2	16	19	female	right	Other	9	n54_0_p1_1_mono.wav	le garfait	NA	no	no	filler	NA	no	936.0	1180	244	1	yes
1	D2	2	16	19	female	right	Other	10	f58_0_p1_1_mono.wav	le service	NA	no	yes	filler	NA	no	935.0	1452	517	5	yes
1	D2	2	16	19	female	right	Other	11	n45_0_p3_1_mono.wav	la horgune	NA	no	no	filler	NA	no	731.0	1625	894	1	yes
1	D2	2	16	19	female	right	Other	12	n29_0_p2_1_mono.wav	le choint	NA	no	no	filler	NA	no	721.0	1055	334	1	yes
1	D2	2	16	19	female	right	Other	13	f38_0_p3_1_mono.wav	l'hôtel	NA	no	yes	filler	NA	no	721.0	1219	498	5	yes
1	D2	2	16	19	female	right	Other	14	n33_0_p2_1_mono.wav	la juisse	NA	no	no	filler	NA	no	912.0	1508	596	1	yes
1	D2	2	16	19	female	right	Other	15	f66_2_p2_1_mono.wav	le d'main	NA	no	yes	filler	r	yes	671.0	1178	507	5	yes
1	D2	2	16	19	female	right	Other	16	n62_0_p4_1_mono.wav	l'hosor	NA	no	no	filler	NA	no	774.0	1319	545	5	no
1	D2	2	16	19	female	right	Other	17	t17_2_p4_2_mono.wav	la s'moule		yes	yes	match	r	yes	894.0	1318	424	1	no
1	D2	2	16	19	female	right	Other	18	n32_0_p1_1_mono.wav	l'heule	NA	no	no	filler	NA	no	678.0	1533	855	1	yes
1	D2	2	16	19	female	right	Other	19	n09_1_p3_1_mono.wav	le femmeil	NA	no	no	filler	u	yes	870.0	1228	358	5	no
1	D2	2	16	19	female	right	Other	20	n78_0_p1_1_mono.wav	le jourlingue	NA	no	no	filler	NA	no	993.0	1331	338	1	yes
1	D2	2	16	19	female	right	Other	21	f09_0_p2_1_mono.wav	la pièce	NA	no	yes	filler	NA	no	830.0	1721	891	1	no
1	D2	2	16	19	female	right	Other	22	n05_2_p3_1_mono.wav	le g'gnoble	NA	no	no	filler	r	yes	864.0	1087	223	5	no
1	D2	2	16	19	female	right	Other	23	n30_0_p2_1_mono.wav	le pien	NA	no	no	filler	NA	no	691.0	1221	530	5	no
1	D2	2	16	19	female	right	Other	24	t06_2_p2_2_mono.wav	le r'cel		yes	yes	match	r	yes	902.0	2015	1113	5	yes
1	D2	2	16	19	female	right	Other	25	n04_2_p4_1_mono.wav	la r'noise	NA	no	no	filler	r	yes	882.0	1183	301	1	yes
1	D2	2	16	19	female	right	Other	26	n70_0_p1_1_mono.wav	la nale	NA	no	no	filler	NA	no	727.0	1644	917	1	yes
1	D2	2	16	19	female	right	Other	27	f06_0_p2_1_mono.wav	le point	NA	no	yes	filler	NA	no	697.0	1039	342	5	yes
1	D2	2	16	19	female	right	Other	28	f21_0_p1_1_mono.wav	la horloge	NA	no	yes	filler	NA	no	691.0	1181	490	5	yes
1	D2	2	16	19	female	right	Other	29	t07_1_p2_2_mono.wav	la bedaine		yes	yes	mismatch	u	yes	973.0	1414	441	5	yes
1	D2	2	16	19	female	right	Other	30	f07_0_p4_1_mono.wav	l'année	NA	no	yes	filler	NA	no	683.0	913	230	1	no
1	D2	2	16	19	female	right	Other	31	n82_0_p2_1_mono.wav	le sermite	NA	no	no	filler	NA	no	876.0	1293	417	1	yes
1	D2	2	16	19	female	right	Other	32	f56_0_p3_1_mono.wav	le pays	NA	no	yes	filler	NA	no	738.0	2229	1491	5	yes
1	D2	2	16	19	female	right	Other	33	f36_0_p1_1_mono.wav	le type	NA	no	yes	filler	NA	no	965.0	1224	259	5	yes
1	D2	2	16	19	female	right	Other	34	f46_0_p1_1_mono.wav	la part	NA	no	yes	filler	NA	no	851.0	1135	284	5	yes
1	D2	2	16	19	female	right	Other	35	f40_0_p1_1_mono.wav	l'homme	NA	no	yes	filler	NA	no	638.0	978	340	1	no
1	D2	2	16	19	female	right	Other	36	f43_0_p4_1_mono.wav	la femme	NA	no	yes	filler	NA	no	863.0	1254	391	5	yes
1	D2	2	16	19	female	right	Other	37	n89_1_p3_1_mono.wav	le rebil	NA	no	no	filler	u	yes	912.0	1266	354	1	yes
1	D2	2	16	19	female	right	Other	38	n10_1_p1_1_mono.wav	le regot	NA	no	no	filler	u	yes	646.0	1447	801	5	no
1	D2	2	16	19	female	right	Other	39	t05_1_p2_2_mono.wav	le genièvre		yes	yes	mismatch	u	yes	967.0	2264	1297	5	yes
1	D2	2	16	19	female	right	Other	40	f26_0_p1_1_mono.wav	la ville	NA	no	yes	filler	NA	no	741.0	1180	439	5	yes
1	D2	2	16	19	female	right	Other	41	n83_0_p4_1_mono.wav	le sogueil	NA	no	no	filler	NA	no	915.0	1072	157	1	yes
1	D2	2	16	19	female	right	Other	42	n65_0_p4_1_mono.wav	la murte	NA	no	no	filler	NA	no	894.0	1240	346	1	yes
1	D2	2	16	19	female	right	Other	43	n16_2_p4_1_mono.wav	la p'doche	NA	no	no	filler	r	yes	875.0	1615	740	1	yes
1	D2	2	16	19	female	right	Other	44	f41_0_p4_1_mono.wav	la carte	NA	no	yes	filler	NA	no	836.0	1231	395	5	yes
1	D2	2	16	19	female	right	Other	45	n42_0_p1_1_mono.wav	l'endos	NA	no	no	filler	NA	no	588.0	1208	620	5	no
1	D2	2	16	19	female	right	Other	46	t22_1_p4_2_mono.wav	le renard		yes	yes	mismatch	u	yes	935.0	1756	821	1	no
1	D2	2	16	19	female	right	Other	47	f65_2_p1_1_mono.wav	le r'paire	NA	no	yes	filler	r	yes	914.0	1300	386	5	yes
1	D2	2	16	19	female	right	Other	48	n49_0_p2_1_mono.wav	la questier	NA	no	no	filler	NA	no	963.0	1397	434	1	yes
1	D2	2	16	19	female	right	Other	49	n53_0_p1_1_mono.wav	le frolège	NA	no	no	filler	NA	no	855.0	1588	733	1	yes
1	D2	2	16	19	female	right	Other	50	f05_0_p2_1_mono.wav	le chien	NA	no	yes	filler	NA	no	668.0	1139	471	5	yes
1	D2	2	16	19	female	right	Other	51	f55_0_p4_1_mono.wav	le livre	NA	no	yes	filler	NA	no	872.0	2215	1343	5	yes
1	D2	2	16	19	female	right	Other	52	f61_1_p3_1_mono.wav	le semi	NA	no	yes	filler	u	yes	716.0	1339	623	1	no
1	D2	2	16	19	female	right	Other	53	n68_0_p3_1_mono.wav	la moucle	NA	no	no	filler	NA	no	808.0	1152	344	1	yes
1	D2	2	16	19	female	right	Other	54	f44_0_p1_1_mono.wav	la lettre	NA	no	yes	filler	NA	no	839.0	1022	183	5	yes
1	D2	2	16	19	female	right	Other	55	n11_2_p4_1_mono.wav	le r'fant	NA	no	no	filler	r	yes	646.0	1182	536	1	yes
1	D2	2	16	19	female	right	Other	56	t02_2_p3_2_mono.wav	la l'vrette		yes	yes	match	r	yes	888.0	1335	447	5	yes
1	D2	2	16	19	female	right	Other	57	f59_0_p2_1_mono.wav	le soleil	NA	no	yes	filler	NA	no	871.0	995	124	5	yes
1	D2	2	16	19	female	right	Other	58	f54_0_p1_1_mono.wav	le journal	NA	no	yes	filler	NA	no	910.0	1270	360	5	yes
1	D2	2	16	19	female	right	Other	59	f13_0_p4_1_mono.wav	le papier	NA	no	yes	filler	NA	no	977.0	1147	170	1	no
1	D2	2	16	19	female	right	Other	60	n72_0_p3_1_mono.wav	la teune	NA	no	no	filler	NA	no	893.0	1648	755	1	yes
1	D2	2	16	19	female	right	Other	61	n39_0_p2_1_mono.wav	le grat	NA	no	no	filler	NA	no	621.0	1409	788	1	yes
1	D2	2	16	19	female	right	Other	62	f20_0_p3_1_mono.wav	la famille	NA	no	yes	filler	NA	no	856.0	1031	175	5	yes
1	D2	2	16	19	female	right	Other	63	f50_0_p2_1_mono.wav	le café	NA	no	yes	filler	NA	no	827.0	1010	183	5	yes
1	D2	2	16	19	female	right	Other	64	t19_1_p3_2_mono.wav	le chenil		yes	yes	mismatch	u	yes	917.0	1653	736	1	no
1	D2	2	16	19	female	right	Other	65	n24_2_p4_1_mono.wav	le f'quon	NA	no	no	filler	r	yes	660.0	3878	3218	5	no
1	D2	2	16	19	female	right	Other	66	f18_0_p3_1_mono.wav	l'enfant	NA	no	yes	filler	NA	no	513.0	1909	1396	1	no
1	D2	2	16	19	female	right	Other	67	n60_0_p1_1_mono.wav	le tinge	NA	no	no	filler	NA	no	954.0	1544	590	1	yes
1	D2	2	16	19	female	right	Other	68	f28_0_p4_1_mono.wav	le frère	NA	no	yes	filler	NA	no	938.0	1051	113	5	yes
1	D2	2	16	19	female	right	Other	69	f64_2_p1_1_mono.wav	le m'lon	NA	no	yes	filler	r	yes	596.0	1093	497	1	no
1	D2	2	16	19	female	right	Other	70	n31_0_p1_1_mono.wav	l'annue	NA	no	no	filler	NA	no	692.0	1602	910	5	no
1	D2	2	16	19	female	right	Other	71	n48_0_p2_1_mono.wav	la mainou	NA	no	no	filler	NA	no	740.0	1307	567	1	yes
1	D2	2	16	19	female	right	Other	72	f39_0_p1_1_mono.wav	l'histoire	NA	no	yes	filler	NA	no	949.0	1158	209	1	no
1	D2	2	16	19	female	right	Other	73	t21_1_p1_2_mono.wav	le recul		yes	yes	mismatch	u	yes	833.0	994	161	5	yes
1	D2	2	16	19	female	right	Other	74	n13_1_p2_1_mono.wav	le seblème	NA	no	no	filler	u	yes	846.0	1249	403	5	no
1	D2	2	16	19	female	right	Other	75	n35_0_p3_1_mono.wav	le missien	NA	no	no	filler	NA	no	721.0	3556	2835	1	yes
1	D2	2	16	19	female	right	Other	76	f30_0_p4_1_mono.wav	le garçon	NA	no	yes	filler	NA	no	615.0	895	280	5	yes
1	D2	2	16	19	female	right	Other	77	n69_0_p1_1_mono.wav	la madaine	NA	no	no	filler	NA	no	885.0	1050	165	1	yes
1	D2	2	16	19	female	right	Other	78	n38_0_p2_1_mono.wav	le suir	NA	no	no	filler	NA	no	855.0	1066	211	1	yes
1	D2	2	16	19	female	right	Other	79	n47_0_p4_1_mono.wav	la nure	NA	no	no	filler	NA	no	829.0	1212	383	1	yes
1	D2	2	16	19	female	right	Other	80	n91_2_p3_1_mono.wav	le r'lide	NA	no	no	filler	r	yes	861.0	1074	213	1	yes
1	D2	2	16	19	female	right	Other	81	n64_0_p3_1_mono.wav	l'oune	NA	no	no	filler	NA	no	601.0	1157	556	5	no
1	D2	2	16	19	female	right	Other	82	n20_1_p1_1_mono.wav	le mejet	NA	no	no	filler	u	yes	793.0	1267	474	5	no
1	D2	2	16	19	female	right	Other	83	n22_1_p4_1_mono.wav	le relogue	NA	no	no	filler	u	yes	809.0	988	179	1	yes
1	D2	2	16	19	female	right	Other	84	f04_0_p2_1_mono.wav	la soeur	NA	no	yes	filler	NA	no	790.0	1117	327	5	yes
1	D2	2	16	19	female	right	Other	85	n61_0_p3_1_mono.wav	l'apure	NA	no	no	filler	NA	no	885.0	1047	162	5	no
1	D2	2	16	19	female	right	Other	86	n66_0_p2_1_mono.wav	la cance	NA	no	no	filler	NA	no	861.0	1022	161	5	no
1	D2	2	16	19	female	right	Other	87	f14_0_p2_1_mono.wav	le soir	NA	no	yes	filler	NA	no	891.0	1063	172	5	yes
1	D2	2	16	19	female	right	Other	88	n51_0_p4_1_mono.wav	le caffant	NA	no	no	filler	NA	no	644.0	1444	800	1	yes
1	D2	2	16	19	female	right	Other	89	f08_0_p4_1_mono.wav	l'heure	NA	no	yes	filler	NA	no	735.0	1283	548	5	yes
1	D2	2	16	19	female	right	Other	90	n81_0_p1_1_mono.wav	le croux	NA	no	no	filler	NA	no	720.0	1421	701	5	no
1	D2	2	16	19	female	right	Other	91	t09_2_p2_2_mono.wav	le f'nouil		yes	yes	match	r	yes	820.0	1067	247	1	no
1	D2	2	16	19	female	right	Other	92	f15_0_p3_1_mono.wav	le train	NA	no	yes	filler	NA	no	648.0	1273	625	1	no
1	D2	2	16	19	female	right	Other	93	f10_0_p2_1_mono.wav	le chat	NA	no	yes	filler	NA	no	582.0	1148	566	1	no
1	D2	2	16	19	female	right	Other	94	n95_2_p4_1_mono.wav	le r'pus	NA	no	no	filler	r	yes	927.0	1476	549	1	yes
1	D2	2	16	19	female	right	Other	95	f70_2_p2_1_mono.wav	le s'mestre	NA	no	yes	filler	r	yes	960.0	1428	468	5	yes
1	D2	2	16	19	female	right	Other	96	n25_0_p1_1_mono.wav	l'incre	NA	no	no	filler	NA	no	771.0	1309	538	1	yes
1	D2	2	16	19	female	right	Other	97	f62_1_p1_1_mono.wav	le ressort	NA	no	yes	filler	u	yes	881.0	1613	732	1	no
1	D2	2	16	19	female	right	Other	98	t16_1_p1_2_mono.wav	la peluche		yes	yes	mismatch	u	yes	846.0	928	82	5	yes
1	D2	2	16	19	female	right	Other	99	f32_0_p4_1_mono.wav	le moment	NA	no	yes	filler	NA	no	534.0	828	294	5	yes
1	D2	2	16	19	female	right	Other	100	f02_0_p2_1_mono.wav	la main	NA	no	yes	filler	NA	no	540.0	833	293	1	no
1	D2	2	16	19	female	right	Other	101	f63_1_p2_1_mono.wav	le cheval	NA	no	yes	filler	u	yes	841.0	1385	544	1	no
1	D2	2	16	19	female	right	Other	102	f11_0_p2_1_mono.wav	le milieu	NA	no	yes	filler	NA	no	753.0	1190	437	1	no
1	D2	2	16	19	female	right	Other	103	f17_0_p4_1_mono.wav	l'accord	NA	no	yes	filler	NA	no	866.0	972	106	5	yes
1	D2	2	16	19	female	right	Other	104	t15_1_p3_2_mono.wav	la pelouse		yes	yes	mismatch	u	yes	1008.0	1178	170	5	yes
1	D2	2	16	19	female	right	Other	105	n06_1_p2_1_mono.wav	le retal	NA	no	no	filler	u	yes	907.0	1232	325	1	yes
1	D2	2	16	19	female	right	Other	106	n18_1_p3_1_mono.wav	le reclin	NA	no	no	filler	u	yes	888.0	2392	1504	1	yes
1	D2	2	16	19	female	right	Other	107	f52_0_p2_1_mono.wav	le genre	NA	no	yes	filler	NA	no	889.0	1471	582	5	yes
1	D2	2	16	19	female	right	Other	108	n14_2_p2_1_mono.wav	la ch'maille	NA	no	no	filler	r	yes	885.0	1066	181	1	yes
1	D2	2	16	19	female	right	Other	109	n75_0_p2_1_mono.wav	le fège	NA	no	no	filler	NA	no	882.0	1359	477	1	yes
1	D2	2	16	19	female	right	Other	110	f53_0_p2_1_mono.wav	le groupe	NA	no	yes	filler	NA	no	744.0	1229	485	5	yes
1	D2	2	16	19	female	right	Other	111	n63_0_p1_1_mono.wav	la histienne	NA	no	no	filler	NA	no	786.0	1020	234	1	yes
1	D2	2	16	19	female	right	Other	112	n77_0_p4_1_mono.wav	le bruc	NA	no	no	filler	NA	no	880.0	1869	989	1	yes
1	D2	2	16	19	female	right	Other	113	n59_0_p4_1_mono.wav	le solti	NA	no	no	filler	NA	no	856.0	1278	422	5	no
1	D2	2	16	19	female	right	Other	114	t18_1_p2_2_mono.wav	le reflet	C	yes	yes	mismatch	u	yes	845.0	1722	877	1	no
1	D2	2	16	19	female	right	Other	115	f34_0_p1_1_mono.wav	le silence	NA	no	yes	filler	NA	no	931.0	1342	411	5	yes
1	D2	2	16	19	female	right	Other	116	n37_0_p4_1_mono.wav	le padiot	NA	no	no	filler	NA	no	652.0	1080	428	5	no
1	D2	2	16	19	female	right	Other	117	f67_1_p3_1_mono.wav	le refuge	NA	no	yes	filler	u	yes	888.0	1106	218	5	yes
1	D2	2	16	19	female	right	Other	118	n28_0_p1_1_mono.wav	la veure	NA	no	no	filler	NA	no	834.0	891	57	1	yes
1	D2	2	16	19	female	right	Other	119	f42_0_p1_1_mono.wav	la chance	NA	no	yes	filler	NA	no	807.0	773	-34	5	yes
1	D2	2	16	19	female	right	Other	120	n58_0_p1_1_mono.wav	la siture	NA	no	no	filler	NA	no	885.0	1255	370	1	yes
1	D2	2	16	19	female	right	Other	121	f45_0_p2_1_mono.wav	la madame	NA	no	yes	filler	NA	no	767.0	1021	254	5	yes
1	D2	2	16	19	female	right	Other	122	f31_0_p3_1_mono.wav	le jour	NA	no	yes	filler	NA	no	878.0	1320	442	5	yes
1	D2	2	16	19	female	right	Other	123	n26_0_p4_1_mono.wav	la jun	NA	no	no	filler	NA	no	568.0	906	338	1	yes
1	D2	2	16	19	female	right	Other	124	f01_0_p4_1_mono.wav	l'oncle	NA	no	yes	filler	NA	no	764.0	1076	312	1	no
1	D2	2	16	19	female	right	Other	125	t23_2_p2_2_mono.wav	la s'cousse		yes	yes	match	r	yes	865.0	1275	410	1	no
1	D2	2	16	19	female	right	Other	126	f19_0_p2_1_mono.wav	l'idée	NA	no	yes	filler	NA	no	796.0	1448	652	5	yes
1	D2	2	16	19	female	right	Other	127	n52_0_p2_1_mono.wav	le drère	NA	no	no	filler	NA	no	819.0	3645	2826	5	no
1	D2	2	16	19	female	right	Other	128	f51_0_p3_1_mono.wav	le chef	NA	no	yes	filler	NA	no	767.0	1263	496	5	yes
1	D2	2	16	19	female	right	Other	129	n57_0_p1_1_mono.wav	le ratime	NA	no	no	filler	NA	no	859.0	1585	726	1	yes
1	D2	2	16	19	female	right	Other	130	n96_2_p1_1_mono.wav	la r'fare	NA	no	no	filler	r	yes	910.0	2468	1558	1	yes
1	D2	2	16	19	female	right	Other	131	n01_2_p1_1_mono.wav	la b'rasse	NA	no	no	filler	r	yes	889.0	1264	375	1	yes
1	D2	2	16	19	female	right	Other	132	f69_1_p4_1_mono.wav	le registre	NA	no	yes	filler	u	yes	945.0	811	-134	5	yes
1	D2	2	16	19	female	right	Other	133	n56_0_p3_1_mono.wav	le mossu	NA	no	no	filler	NA	no	820.0	1550	730	1	yes
1	D2	2	16	19	female	right	Other	134	n41_0_p2_1_mono.wav	l'agime	NA	no	no	filler	NA	no	766.0	2850	2084	5	no
1	D2	2	16	19	female	right	Other	135	f37_0_p2_1_mono.wav	l'amour	NA	no	yes	filler	NA	no	839.0	1532	693	5	yes
1	D2	2	16	19	female	right	Other	136	f03_0_p4_1_mono.wav	la nuit	NA	no	yes	filler	NA	no	735.0	1449	714	1	no
1	D2	2	16	19	female	right	Other	137	f12_0_p4_1_mono.wav	le monde	NA	no	yes	filler	NA	no	723.0	1108	385	5	yes
1	D2	2	16	19	female	right	Other	138	n92_1_p2_1_mono.wav	le regure	NA	no	no	filler	u	yes	940.0	1142	202	5	no
1	D2	2	16	19	female	right	Other	139	n94_2_p1_1_mono.wav	le s'questre	NA	no	no	filler	r	yes	1109.0	2402	1293	5	no
1	D2	2	16	19	female	right	Other	140	n19_1_p3_1_mono.wav	le chedel	NA	no	no	filler	u	yes	870.0	1769	899	1	yes
1	D2	2	16	19	female	right	Other	141	f68_2_p4_1_mono.wav	le r'tard	NA	no	yes	filler	r	yes	935.0	1470	535	5	yes
1	D2	2	16	19	female	right	Other	142	t01_2_p4_2_mono.wav	la b'lette	*	yes	yes	match	r	yes	879.0	2251	1372	1	no
1	D2	2	16	19	female	right	Other	143	n71_0_p3_1_mono.wav	la foite	NA	no	no	filler	NA	no	994.0	1749	755	1	yes
1	D2	2	16	19	female	right	Other	144	n40_0_p3_1_mono.wav	l'équise	NA	no	no	filler	NA	no	872.0	1095	223	1	yes
1	D2	2	16	19	female	right	Other	145	f60_0_p1_1_mono.wav	le tour	NA	no	yes	filler	NA	no	839.0	1320	481	5	yes
1	D2	2	16	19	female	right	Other	146	n34_0_p3_1_mono.wav	le teau	NA	no	no	filler	NA	no	473.0	1175	702	5	no
1	D2	2	16	19	female	right	Other	147	f23_0_p1_1_mono.wav	la mère	NA	no	yes	filler	NA	no	902.0	1176	274	5	yes
1	D2	2	16	19	female	right	Other	148	t10_2_p2_2_mono.wav	le r'bond		yes	yes	match	r	yes	747.0	1213	466	1	no
1	D2	2	16	19	female	right	Other	149	f72_2_p4_1_mono.wav	la r'vanche	NA	no	yes	filler	r	yes	869.0	1877	1008	1	no
1	D2	2	16	19	female	right	Other	150	f22_0_p3_1_mono.wav	la journée	NA	no	yes	filler	NA	no	793.0	1134	341	5	yes
1	D2	2	16	19	female	right	Other	151	f16_0_p4_1_mono.wav	l'école	NA	no	yes	filler	NA	no	771.0	1258	487	5	yes
1	D2	2	16	19	female	right	Other	152	n80_0_p2_1_mono.wav	le péhut	NA	no	no	filler	NA	no	988.0	1684	696	1	yes
1	D2	2	16	19	female	right	Other	153	n36_0_p1_1_mono.wav	le linde	NA	no	no	filler	NA	no	848.0	1209	361	5	no
1	D2	2	16	19	female	right	Other	154	n03_2_p2_1_mono.wav	la m'quisse	NA	no	no	filler	r	yes	912.0	1256	344	1	yes
1	D2	2	16	19	female	right	Other	155	n27_0_p2_1_mono.wav	la tuit	NA	no	no	filler	NA	no	916.0	1199	283	5	no
1	D2	2	16	19	female	right	Other	156	f35_0_p4_1_mono.wav	le soldat	NA	no	yes	filler	NA	no	677.0	1259	582	1	no
1	D2	2	16	19	female	right	Other	157	f29_0_p3_1_mono.wav	le fromage	NA	no	yes	filler	NA	no	818.0	1224	406	5	yes
1	D2	2	16	19	female	right	Other	158	f47_0_p2_1_mono.wav	la route	NA	no	yes	filler	NA	no	797.0	1797	1000	5	yes
1	D2	2	16	19	female	right	Other	159	f25_0_p3_1_mono.wav	la question	NA	no	yes	filler	NA	no	728.0	1384	656	5	yes
1	D2	2	16	19	female	right	Other	160	n88_1_p2_1_mono.wav	le messin	NA	no	no	filler	u	yes	704.0	1216	512	1	yes
1	D2	2	16	19	female	right	Other	161	f49_0_p2_1_mono.wav	le bureau	NA	no	yes	filler	NA	no	857.0	1982	1125	5	yes
1	D2	2	16	19	female	right	Other	162	n46_0_p1_1_mono.wav	la jourcie	NA	no	no	filler	NA	no	930.0	1426	496	5	no
1	D2	2	16	19	female	right	Other	163	f27_0_p1_1_mono.wav	le cadeau	NA	no	yes	filler	NA	no	604.0	990	386	5	yes
1	D2	2	16	19	female	right	Other	164	n93_1_p3_1_mono.wav	le revercle	NA	no	no	filler	u	yes	1027.0	1216	189	1	yes
1	D2	2	16	19	female	right	Other	165	n02_2_p2_1_mono.wav	la l'druche	NA	no	no	filler	r	yes	869.0	1775	906	5	no
1	D2	2	16	19	female	right	Other	166	t24_2_p1_2_mono.wav	le f'san	C	yes	yes	match	r	yes	573.0	1111	538	5	yes
1	D2	2	16	19	female	right	Other	167	n67_0_p2_1_mono.wav	la janne	NA	no	no	filler	NA	no	765.0	1295	530	1	yes
1	D2	2	16	19	female	right	Other	168	n87_1_p3_1_mono.wav	le chenache	NA	no	no	filler	u	yes	881.0	1583	702	1	yes
1	D2	2	16	19	female	right	Other	169	t11_1_p3_2_mono.wav	le remous		yes	yes	mismatch	u	yes	553.0	1189	636	5	yes
1	D2	2	16	19	female	right	Other	170	f48_0_p3_1_mono.wav	la scène	NA	no	yes	filler	NA	no	862.0	1717	855	1	no
1	D2	2	16	19	female	right	Other	171	n74_0_p1_1_mono.wav	le camont	NA	no	no	filler	NA	no	665.0	1581	916	1	yes
1	D2	2	16	19	female	right	Other	172	f57_0_p2_1_mono.wav	le prix	NA	no	yes	filler	NA	no	792.0	1283	491	1	no
1	D2	2	16	19	female	right	Other	173	n08_2_p2_1_mono.wav	la s'cotte	NA	no	no	filler	r	yes	817.0	1075	258	5	no
1	D2	2	16	19	female	right	Other	174	n90_2_p2_1_mono.wav	le d'sseau	NA	no	no	filler	r	yes	683.0	1310	627	5	no
1	D2	2	16	19	female	right	Other	175	n23_1_p2_1_mono.wav	la sepave	NA	no	no	filler	u	yes	897.0	1254	357	1	yes
1	D2	2	16	19	female	right	Other	176	t20_1_p3_2_mono.wav	le meneau		yes	yes	mismatch	u	yes	629.0	1656	1027	5	yes
1	D2	2	16	19	female	right	Other	177	n15_2_p3_1_mono.wav	la p'ssade	NA	no	no	filler	r	yes	898.0	1775	877	1	yes
1	D2	2	16	19	female	right	Other	178	n85_2_p1_1_mono.wav	le s'funt	NA	no	no	filler	r	yes	778.0	1155	377	5	no
1	D2	2	16	19	female	right	Other	179	t04_1_p1_2_mono.wav	la reliure		yes	yes	mismatch	u	yes	1026.0	2655	1629	1	no
1	D2	2	16	19	female	right	Other	180	n79_0_p4_1_mono.wav	le tavre	NA	no	no	filler	NA	no	855.0	1548	693	1	yes
1	D2	2	16	19	female	right	Other	181	t08_1_p3_2_mono.wav	la semelle		yes	yes	mismatch	u	yes	916.0	1473	557	5	yes
1	D2	2	16	19	female	right	Other	182	n07_1_p2_1_mono.wav	la bechesse	NA	no	no	filler	u	yes	898.0	2353	1455	5	no
1	D2	2	16	19	female	right	Other	183	n21_2_p1_1_mono.wav	le r'pèze	NA	no	no	filler	r	yes	831.0	1485	654	1	yes
1	D2	2	16	19	female	right	Other	184	t13_2_p3_2_mono.wav	le s'vrage		yes	yes	match	r	yes	998.0	1262	264	5	yes
1	D2	2	16	19	female	right	Other	185	n12_1_p1_1_mono.wav	le rechant	NA	no	no	filler	u	yes	686.0	3651	2965	1	yes
1	D2	2	16	19	female	right	Other	186	t14_2_p3_2_mono.wav	la ch'nille		yes	yes	match	r	yes	854.0	1315	461	1	no
1	D2	2	16	19	female	right	Other	187	n43_0_p2_1_mono.wav	l'ivée	NA	no	no	filler	NA	no	804.0	1778	974	1	yes
1	D2	2	16	19	female	right	Other	188	t12_2_p4_2_mono.wav	le r'quin		yes	yes	match	r	yes	641.0	886	245	5	yes
1	D2	2	16	19	female	right	Other	189	f24_0_p2_1_mono.wav	la maison	NA	no	yes	filler	NA	no	625.0	865	240	5	yes
1	D2	2	16	19	female	right	Other	190	n17_1_p2_1_mono.wav	la segence	NA	no	no	filler	u	yes	1016.0	1060	44	1	yes
1	D2	2	16	19	female	right	Other	191	n84_0_p4_1_mono.wav	le vort	NA	no	no	filler	NA	no	798.0	1499	701	1	yes
1	D2	2	16	19	female	right	Other	192	f71_1_p2_1_mono.wav	le record	NA	no	yes	filler	u	yes	909.0	1087	178	1	no
1	A1	1	1	22	female	right	Other	1	f66_2_p2_1_mono.wav	le d'main	NA	no	yes	filler	r	yes	671.0	2248	1577	5	yes
1	A1	1	1	22	female	right	Other	2	n75_0_p2_1_mono.wav	le fège	NA	no	no	filler	NA	no	882.0	1647	765	5	no
1	A1	1	1	22	female	right	Other	3	f34_0_p1_1_mono.wav	le silence	NA	no	yes	filler	NA	no	931.0	1405	474	5	yes
1	A1	1	1	22	female	right	Other	4	f72_1_p1_1_mono.wav	la revanche	NA	no	yes	filler	u	yes	900.0	1379	479	5	yes
1	A1	1	1	22	female	right	Other	5	n29_0_p2_1_mono.wav	le choint	NA	no	no	filler	NA	no	721.0	1816	1095	5	no
1	A1	1	1	22	female	right	Other	6	f67_1_p3_1_mono.wav	le refuge	NA	no	yes	filler	u	yes	888.0	1855	967	5	yes
1	A1	1	1	22	female	right	Other	7	f32_0_p4_1_mono.wav	le moment	NA	no	yes	filler	NA	no	534.0	1673	1139	5	yes
1	A1	1	1	22	female	right	Other	8	n73_0_p1_1_mono.wav	le buveau	NA	no	no	filler	NA	no	615.0	2096	1481	1	yes
1	A1	1	1	22	female	right	Other	9	n03_1_p1_1_mono.wav	la mequisse	NA	no	no	filler	u	yes	908.0	2008	1100	1	yes
1	A1	1	1	22	female	right	Other	10	f50_0_p2_1_mono.wav	le café	NA	no	yes	filler	NA	no	827.0	1429	602	1	no
1	A1	1	1	22	female	right	Other	11	f30_0_p4_1_mono.wav	le garçon	NA	no	yes	filler	NA	no	615.0	890	275	5	yes
1	A1	1	1	22	female	right	Other	12	n58_0_p1_1_mono.wav	la siture	NA	no	no	filler	NA	no	885.0	1938	1053	5	no
1	A1	1	1	22	female	right	Other	13	n22_2_p3_1_mono.wav	le r'logue	NA	no	no	filler	r	yes	818.0	1221	403	1	yes
1	A1	1	1	22	female	right	Other	14	n74_0_p1_1_mono.wav	le camont	NA	no	no	filler	NA	no	665.0	1212	547	5	no
1	A1	1	1	22	female	right	Other	15	f61_1_p3_1_mono.wav	le semi	NA	no	yes	filler	u	yes	716.0	1204	488	5	yes
1	A1	1	1	22	female	right	Other	16	n31_0_p1_1_mono.wav	l'annue	NA	no	no	filler	NA	no	692.0	1422	730	5	no
1	A1	1	1	22	female	right	Other	17	n01_2_p1_1_mono.wav	la b'rasse	NA	no	no	filler	r	yes	889.0	1135	246	1	yes
1	A1	1	1	22	female	right	Other	18	f62_1_p1_1_mono.wav	le ressort	NA	no	yes	filler	u	yes	881.0	1587	706	1	no
1	A1	1	1	22	female	right	Other	19	n96_1_p2_1_mono.wav	la refare	NA	no	no	filler	u	yes	986.0	1562	576	1	yes
1	A1	1	1	22	female	right	Other	20	n70_0_p1_1_mono.wav	la nale	NA	no	no	filler	NA	no	727.0	1950	1223	5	no
1	A1	1	1	22	female	right	Other	21	f04_0_p2_1_mono.wav	la soeur	NA	no	yes	filler	NA	no	790.0	1105	315	5	yes
1	A1	1	1	22	female	right	Other	22	n89_1_p3_1_mono.wav	le rebil	NA	no	no	filler	u	yes	912.0	1630	718	1	yes
1	A1	1	1	22	female	right	Other	23	n60_0_p1_1_mono.wav	le tinge	NA	no	no	filler	NA	no	954.0	1579	625	5	no
1	A1	1	1	22	female	right	Other	24	t22_1_p4_2_mono.wav	le renard		yes	yes	match	u	yes	935.0	1622	687	5	yes
1	A1	1	1	22	female	right	Other	25	n91_2_p3_1_mono.wav	le r'lide	NA	no	no	filler	r	yes	861.0	2237	1376	1	yes
1	A1	1	1	22	female	right	Other	26	f71_2_p1_1_mono.wav	le r'cord	NA	no	yes	filler	r	yes	866.0	1801	935	5	yes
1	A1	1	1	22	female	right	Other	27	f03_0_p4_1_mono.wav	la nuit	NA	no	yes	filler	NA	no	735.0	1268	533	1	no
1	A1	1	1	22	female	right	Other	28	n05_1_p4_1_mono.wav	le gegnoble	NA	no	no	filler	u	yes	987.0	1724	737	1	yes
1	A1	1	1	22	female	right	Other	29	n49_0_p2_1_mono.wav	la questier	NA	no	no	filler	NA	no	963.0	1408	445	1	yes
1	A1	1	1	22	female	right	Other	30	n27_0_p2_1_mono.wav	la tuit	NA	no	no	filler	NA	no	916.0	1194	278	5	no
1	A1	1	1	22	female	right	Other	31	n39_0_p2_1_mono.wav	le grat	NA	no	no	filler	NA	no	621.0	1969	1348	1	yes
1	A1	1	1	22	female	right	Other	32	f19_0_p2_1_mono.wav	l'idée	NA	no	yes	filler	NA	no	796.0	1803	1007	5	yes
1	A1	1	1	22	female	right	Other	33	n02_2_p2_1_mono.wav	la l'druche	NA	no	no	filler	r	yes	869.0	1631	762	5	no
1	A1	1	1	22	female	right	Other	34	f41_0_p4_1_mono.wav	la carte	NA	no	yes	filler	NA	no	836.0	1194	358	5	yes
1	A1	1	1	22	female	right	Other	35	f47_0_p2_1_mono.wav	la route	NA	no	yes	filler	NA	no	797.0	1840	1043	5	yes
1	A1	1	1	22	female	right	Other	36	n09_2_p1_1_mono.wav	le f'mmeil	NA	no	no	filler	r	yes	927.0	1450	523	5	no
1	A1	1	1	22	female	right	Other	37	t11_2_p3_2_mono.wav	le r'mous		yes	yes	mismatch	r	yes	562.0	1681	1119	5	yes
1	A1	1	1	22	female	right	Other	38	n90_2_p2_1_mono.wav	le d'sseau	NA	no	no	filler	r	yes	683.0	1159	476	1	yes
1	A1	1	1	22	female	right	Other	39	f01_0_p4_1_mono.wav	l'oncle	NA	no	yes	filler	NA	no	764.0	1181	417	1	no
1	A1	1	1	22	female	right	Other	40	f44_0_p1_1_mono.wav	la lettre	NA	no	yes	filler	NA	no	839.0	1273	434	5	yes
1	A1	1	1	22	female	right	Other	41	n33_0_p2_1_mono.wav	la juisse	NA	no	no	filler	NA	no	912.0	1490	578	5	no
1	A1	1	1	22	female	right	Other	42	n44_0_p1_1_mono.wav	la fanouille	NA	no	no	filler	NA	no	852.0	1261	409	5	no
1	A1	1	1	22	female	right	Other	43	n65_0_p4_1_mono.wav	la murte	NA	no	no	filler	NA	no	894.0	1253	359	1	yes
1	A1	1	1	22	female	right	Other	44	n62_0_p4_1_mono.wav	l'hosor	NA	no	no	filler	NA	no	774.0	1596	822	1	yes
1	A1	1	1	22	female	right	Other	45	f70_1_p1_1_mono.wav	le semestre	NA	no	yes	filler	u	yes	947.0	1780	833	1	no
1	A1	1	1	22	female	right	Other	46	t21_2_p3_2_mono.wav	le r'cul		yes	yes	mismatch	r	yes	840.0	1480	640	5	yes
1	A1	1	1	22	female	right	Other	47	n69_0_p1_1_mono.wav	la madaine	NA	no	no	filler	NA	no	885.0	2259	1374	1	yes
1	A1	1	1	22	female	right	Other	48	f55_0_p4_1_mono.wav	le livre	NA	no	yes	filler	NA	no	872.0	1416	544	5	yes
1	A1	1	1	22	female	right	Other	49	f27_0_p1_1_mono.wav	le cadeau	NA	no	yes	filler	NA	no	604.0	1184	580	5	yes
1	A1	1	1	22	female	right	Other	50	n50_0_p2_1_mono.wav	la rille	NA	no	no	filler	NA	no	802.0	1382	580	1	yes
1	A1	1	1	22	female	right	Other	51	f45_0_p2_1_mono.wav	la madame	NA	no	yes	filler	NA	no	767.0	953	186	5	yes
1	A1	1	1	22	female	right	Other	52	n20_1_p1_1_mono.wav	le mejet	NA	no	no	filler	u	yes	793.0	1237	444	5	no
1	A1	1	1	22	female	right	Other	53	n35_0_p3_1_mono.wav	le missien	NA	no	no	filler	NA	no	721.0	1393	672	1	yes
1	A1	1	1	22	female	right	Other	54	n19_1_p3_1_mono.wav	le chedel	NA	no	no	filler	u	yes	870.0	1423	553	1	yes
1	A1	1	1	22	female	right	Other	55	n63_0_p1_1_mono.wav	la histienne	NA	no	no	filler	NA	no	786.0	1335	549	1	yes
1	A1	1	1	22	female	right	Other	56	f18_0_p3_1_mono.wav	l'enfant	NA	no	yes	filler	NA	no	513.0	1976	1463	1	no
1	A1	1	1	22	female	right	Other	57	n64_0_p3_1_mono.wav	l'oune	NA	no	no	filler	NA	no	601.0	1593	992	1	yes
1	A1	1	1	22	female	right	Other	58	n52_0_p2_1_mono.wav	le drère	NA	no	no	filler	NA	no	819.0	1292	473	5	no
1	A1	1	1	22	female	right	Other	59	n11_1_p4_1_mono.wav	le refant	NA	no	no	filler	u	yes	700.0	1325	625	5	no
1	A1	1	1	22	female	right	Other	60	n61_0_p3_1_mono.wav	l'apure	NA	no	no	filler	NA	no	885.0	1953	1068	5	no
1	A1	1	1	22	female	right	Other	61	t24_1_p2_2_mono.wav	le faisan	C	yes	yes	match	u	yes	686.0	1133	447	5	yes
1	A1	1	1	22	female	right	Other	62	f57_0_p2_1_mono.wav	le prix	NA	no	yes	filler	NA	no	792.0	1257	465	5	yes
1	A1	1	1	22	female	right	Other	63	f53_0_p2_1_mono.wav	le groupe	NA	no	yes	filler	NA	no	744.0	1171	427	5	yes
1	A1	1	1	22	female	right	Other	64	n86_1_p3_1_mono.wav	le repire	NA	no	no	filler	u	yes	965.0	1553	588	1	yes
1	A1	1	1	22	female	right	Other	65	n76_0_p4_1_mono.wav	le tenre	NA	no	no	filler	NA	no	832.0	1856	1024	5	no
1	A1	1	1	22	female	right	Other	66	t15_2_p2_2_mono.wav	la p'louse		yes	yes	mismatch	r	yes	889.0	1102	213	5	yes
1	A1	1	1	22	female	right	Other	67	n17_2_p4_1_mono.wav	la s'gence	NA	no	no	filler	r	yes	1084.0	2532	1448	5	no
1	A1	1	1	22	female	right	Other	68	t10_1_p1_2_mono.wav	le rebond		yes	yes	match	u	yes	640.0	1595	955	5	yes
1	A1	1	1	22	female	right	Other	69	n34_0_p3_1_mono.wav	le teau	NA	no	no	filler	NA	no	473.0	1262	789	5	no
1	A1	1	1	22	female	right	Other	70	f40_0_p1_1_mono.wav	l'homme	NA	no	yes	filler	NA	no	638.0	1121	483	1	no
1	A1	1	1	22	female	right	Other	71	f58_0_p1_1_mono.wav	le service	NA	no	yes	filler	NA	no	935.0	1514	579	5	yes
1	A1	1	1	22	female	right	Other	72	n13_1_p2_1_mono.wav	le seblème	NA	no	no	filler	u	yes	846.0	1997	1151	1	yes
1	A1	1	1	22	female	right	Other	73	n94_1_p2_1_mono.wav	le sequestre	NA	no	no	filler	u	yes	1007.0	2219	1212	1	yes
1	A1	1	1	22	female	right	Other	74	n57_0_p1_1_mono.wav	le ratime	NA	no	no	filler	NA	no	859.0	1482	623	1	yes
1	A1	1	1	22	female	right	Other	75	n77_0_p4_1_mono.wav	le bruc	NA	no	no	filler	NA	no	880.0	1373	493	5	no
1	A1	1	1	22	female	right	Other	76	f24_0_p2_1_mono.wav	la maison	NA	no	yes	filler	NA	no	625.0	1065	440	5	yes
1	A1	1	1	22	female	right	Other	77	n45_0_p3_1_mono.wav	la horgune	NA	no	no	filler	NA	no	731.0	1055	324	1	yes
1	A1	1	1	22	female	right	Other	78	t04_1_p1_2_mono.wav	la reliure		yes	yes	match	u	yes	1026.0	2851	1825	5	yes
1	A1	1	1	22	female	right	Other	79	f31_0_p3_1_mono.wav	le jour	NA	no	yes	filler	NA	no	878.0	1452	574	5	yes
1	A1	1	1	22	female	right	Other	80	n24_2_p4_1_mono.wav	le f'quon	NA	no	no	filler	r	yes	660.0	1124	464	1	yes
1	A1	1	1	22	female	right	Other	81	n40_0_p3_1_mono.wav	l'équise	NA	no	no	filler	NA	no	872.0	2759	1887	1	yes
1	A1	1	1	22	female	right	Other	82	n59_0_p4_1_mono.wav	le solti	NA	no	no	filler	NA	no	856.0	1520	664	1	yes
1	A1	1	1	22	female	right	Other	83	t16_1_p1_2_mono.wav	la peluche		yes	yes	match	u	yes	846.0	1115	269	5	yes
1	A1	1	1	22	female	right	Other	84	f13_0_p4_1_mono.wav	le papier	NA	no	yes	filler	NA	no	977.0	1250	273	5	yes
1	A1	1	1	22	female	right	Other	85	f22_0_p3_1_mono.wav	la journée	NA	no	yes	filler	NA	no	793.0	1117	324	5	yes
1	A1	1	1	22	female	right	Other	86	f59_0_p2_1_mono.wav	le soleil	NA	no	yes	filler	NA	no	871.0	1128	257	5	yes
1	A1	1	1	22	female	right	Other	87	f42_0_p1_1_mono.wav	la chance	NA	no	yes	filler	NA	no	807.0	1048	241	5	yes
1	A1	1	1	22	female	right	Other	88	n80_0_p2_1_mono.wav	le péhut	NA	no	no	filler	NA	no	988.0	2172	1184	5	no
1	A1	1	1	22	female	right	Other	89	n67_0_p2_1_mono.wav	la janne	NA	no	no	filler	NA	no	765.0	1228	463	1	yes
1	A1	1	1	22	female	right	Other	90	f54_0_p1_1_mono.wav	le journal	NA	no	yes	filler	NA	no	910.0	1473	563	5	yes
1	A1	1	1	22	female	right	Other	91	f02_0_p2_1_mono.wav	la main	NA	no	yes	filler	NA	no	540.0	1128	588	5	yes
1	A1	1	1	22	female	right	Other	92	t14_1_p2_2_mono.wav	la chenille		yes	yes	match	u	yes	938.0	1283	345	5	yes
1	A1	1	1	22	female	right	Other	93	n42_0_p1_1_mono.wav	l'endos	NA	no	no	filler	NA	no	588.0	1046	458	1	yes
1	A1	1	1	22	female	right	Other	94	f29_0_p3_1_mono.wav	le fromage	NA	no	yes	filler	NA	no	818.0	998	180	5	yes
1	A1	1	1	22	female	right	Other	95	n38_0_p2_1_mono.wav	le suir	NA	no	no	filler	NA	no	855.0	2019	1164	5	no
1	A1	1	1	22	female	right	Other	96	f65_2_p1_1_mono.wav	le r'paire	NA	no	yes	filler	r	yes	914.0	1744	830	1	no
1	A1	1	1	22	female	right	Other	97	f56_0_p3_1_mono.wav	le pays	NA	no	yes	filler	NA	no	738.0	1633	895	1	no
1	A1	1	1	22	female	right	Other	98	n06_1_p2_1_mono.wav	le retal	NA	no	no	filler	u	yes	907.0	1721	814	1	yes
1	A1	1	1	22	female	right	Other	99	f21_0_p1_1_mono.wav	la horloge	NA	no	yes	filler	NA	no	691.0	2092	1401	1	no
1	A1	1	1	22	female	right	Other	100	t23_2_p2_2_mono.wav	la s'cousse		yes	yes	mismatch	r	yes	865.0	1095	230	5	yes
1	A1	1	1	22	female	right	Other	101	f46_0_p1_1_mono.wav	la part	NA	no	yes	filler	NA	no	851.0	1523	672	5	yes
1	A1	1	1	22	female	right	Other	102	n87_1_p3_1_mono.wav	le chenache	NA	no	no	filler	u	yes	881.0	1390	509	5	no
1	A1	1	1	22	female	right	Other	103	n43_0_p2_1_mono.wav	l'ivée	NA	no	no	filler	NA	no	804.0	1671	867	1	yes
1	A1	1	1	22	female	right	Other	104	n71_0_p3_1_mono.wav	la foite	NA	no	no	filler	NA	no	994.0	1411	417	5	no
1	A1	1	1	22	female	right	Other	105	n36_0_p1_1_mono.wav	le linde	NA	no	no	filler	NA	no	848.0	1232	384	1	yes
1	A1	1	1	22	female	right	Other	106	n78_0_p1_1_mono.wav	le jourlingue	NA	no	no	filler	NA	no	993.0	1810	817	1	yes
1	A1	1	1	22	female	right	Other	107	f23_0_p1_1_mono.wav	la mère	NA	no	yes	filler	NA	no	902.0	1205	303	5	yes
1	A1	1	1	22	female	right	Other	108	f09_0_p2_1_mono.wav	la pièce	NA	no	yes	filler	NA	no	830.0	2582	1752	5	yes
1	A1	1	1	22	female	right	Other	109	f36_0_p1_1_mono.wav	le type	NA	no	yes	filler	NA	no	965.0	1239	274	1	no
1	A1	1	1	22	female	right	Other	110	f38_0_p3_1_mono.wav	l'hôtel	NA	no	yes	filler	NA	no	721.0	1453	732	1	no
1	A1	1	1	22	female	right	Other	111	f20_0_p3_1_mono.wav	la famille	NA	no	yes	filler	NA	no	856.0	1256	400	5	yes
1	A1	1	1	22	female	right	Other	112	n93_2_p3_1_mono.wav	le r'vercle	NA	no	no	filler	r	yes	806.0	1140	334	1	yes
1	A1	1	1	22	female	right	Other	113	f26_0_p1_1_mono.wav	la ville	NA	no	yes	filler	NA	no	741.0	1213	472	5	yes
1	A1	1	1	22	female	right	Other	114	n18_1_p3_1_mono.wav	le reclin	NA	no	no	filler	u	yes	888.0	2073	1185	5	no
1	A1	1	1	22	female	right	Other	115	n32_0_p1_1_mono.wav	l'heule	NA	no	no	filler	NA	no	678.0	910	232	1	yes
1	A1	1	1	22	female	right	Other	116	t01_2_p4_2_mono.wav	la b'lette	*	yes	yes	mismatch	r	yes	879.0	1150	271	5	yes
1	A1	1	1	22	female	right	Other	117	n23_2_p1_1_mono.wav	la s'pave	NA	no	no	filler	r	yes	945.0	1645	700	1	yes
1	A1	1	1	22	female	right	Other	118	t02_1_p1_2_mono.wav	la levrette		yes	yes	match	u	yes	856.0	1057	201	5	yes
1	A1	1	1	22	female	right	Other	119	n30_0_p2_1_mono.wav	le pien	NA	no	no	filler	NA	no	691.0	1024	333	1	yes
1	A1	1	1	22	female	right	Other	120	f39_0_p1_1_mono.wav	l'histoire	NA	no	yes	filler	NA	no	949.0	1835	886	1	no
1	A1	1	1	22	female	right	Other	121	t08_1_p3_2_mono.wav	la semelle		yes	yes	match	u	yes	916.0	1148	232	5	yes
1	A1	1	1	22	female	right	Other	122	f63_2_p4_1_mono.wav	le ch'val	NA	no	yes	filler	r	yes	779.0	1156	377	5	yes
1	A1	1	1	22	female	right	Other	123	n16_2_p4_1_mono.wav	la p'doche	NA	no	no	filler	r	yes	875.0	1062	187	1	yes
1	A1	1	1	22	female	right	Other	124	t07_2_p1_2_mono.wav	la b'daine		yes	yes	mismatch	r	yes	756.0	2416	1660	1	no
1	A1	1	1	22	female	right	Other	125	f17_0_p4_1_mono.wav	l'accord	NA	no	yes	filler	NA	no	866.0	1147	281	5	yes
1	A1	1	1	22	female	right	Other	126	t13_2_p3_2_mono.wav	le s'vrage		yes	yes	mismatch	r	yes	998.0	1387	389	5	yes
1	A1	1	1	22	female	right	Other	127	f10_0_p2_1_mono.wav	le chat	NA	no	yes	filler	NA	no	582.0	987	405	1	no
1	A1	1	1	22	female	right	Other	128	n48_0_p2_1_mono.wav	la mainou	NA	no	no	filler	NA	no	740.0	1069	329	5	no
1	A1	1	1	22	female	right	Other	129	f11_0_p2_1_mono.wav	le milieu	NA	no	yes	filler	NA	no	753.0	1374	621	1	no
1	A1	1	1	22	female	right	Other	130	n46_0_p1_1_mono.wav	la jourcie	NA	no	no	filler	NA	no	930.0	1458	528	1	yes
1	A1	1	1	22	female	right	Other	131	f37_0_p2_1_mono.wav	l'amour	NA	no	yes	filler	NA	no	839.0	1002	163	5	yes
1	A1	1	1	22	female	right	Other	132	n53_0_p1_1_mono.wav	le frolège	NA	no	no	filler	NA	no	855.0	1292	437	1	yes
1	A1	1	1	22	female	right	Other	133	n88_1_p2_1_mono.wav	le messin	NA	no	no	filler	u	yes	704.0	1193	489	1	yes
1	A1	1	1	22	female	right	Other	134	n47_0_p4_1_mono.wav	la nure	NA	no	no	filler	NA	no	829.0	2440	1611	1	yes
1	A1	1	1	22	female	right	Other	135	n56_0_p3_1_mono.wav	le mossu	NA	no	no	filler	NA	no	820.0	1322	502	1	yes
1	A1	1	1	22	female	right	Other	136	t03_2_p2_2_mono.wav	la m'notte		yes	yes	mismatch	r	yes	889.0	1070	181	5	yes
1	A1	1	1	22	female	right	Other	137	n72_0_p3_1_mono.wav	la teune	NA	no	no	filler	NA	no	893.0	1326	433	1	yes
1	A1	1	1	22	female	right	Other	138	f35_0_p4_1_mono.wav	le soldat	NA	no	yes	filler	NA	no	677.0	1598	921	1	no
1	A1	1	1	22	female	right	Other	139	t06_1_p1_2_mono.wav	le recel		yes	yes	match	u	yes	938.0	1236	298	5	yes
1	A1	1	1	22	female	right	Other	140	f25_0_p3_1_mono.wav	la question	NA	no	yes	filler	NA	no	728.0	1132	404	5	yes
1	A1	1	1	22	female	right	Other	141	n14_1_p1_1_mono.wav	la chemaille	NA	no	no	filler	u	yes	797.0	1144	347	1	yes
1	A1	1	1	22	female	right	Other	142	n79_0_p4_1_mono.wav	le tavre	NA	no	no	filler	NA	no	855.0	1323	468	5	no
1	A1	1	1	22	female	right	Other	143	f08_0_p4_1_mono.wav	l'heure	NA	no	yes	filler	NA	no	735.0	1180	445	1	no
1	A1	1	1	22	female	right	Other	144	f33_0_p4_1_mono.wav	le rapport	NA	no	yes	filler	NA	no	872.0	1442	570	1	no
1	A1	1	1	22	female	right	Other	145	n12_1_p1_1_mono.wav	le rechant	NA	no	no	filler	u	yes	686.0	1579	893	1	yes
1	A1	1	1	22	female	right	Other	146	f05_0_p2_1_mono.wav	le chien	NA	no	yes	filler	NA	no	668.0	1885	1217	1	no
1	A1	1	1	22	female	right	Other	147	f16_0_p4_1_mono.wav	l'école	NA	no	yes	filler	NA	no	771.0	992	221	5	yes
1	A1	1	1	22	female	right	Other	148	t05_2_p3_2_mono.wav	le g'nièvre		yes	yes	mismatch	r	yes	943.0	978	35	5	yes
1	A1	1	1	22	female	right	Other	149	n25_0_p1_1_mono.wav	l'incre	NA	no	no	filler	NA	no	771.0	1344	573	1	yes
1	A1	1	1	22	female	right	Other	150	f49_0_p2_1_mono.wav	le bureau	NA	no	yes	filler	NA	no	857.0	1059	202	5	yes
1	A1	1	1	22	female	right	Other	151	n51_0_p4_1_mono.wav	le caffant	NA	no	no	filler	NA	no	644.0	2761	2117	1	yes
1	A1	1	1	22	female	right	Other	152	n81_0_p1_1_mono.wav	le croux	NA	no	no	filler	NA	no	720.0	1144	424	5	no
1	A1	1	1	22	female	right	Other	153	n66_0_p2_1_mono.wav	la cance	NA	no	no	filler	NA	no	861.0	1488	627	5	no
1	A1	1	1	22	female	right	Other	154	f60_0_p1_1_mono.wav	le tour	NA	no	yes	filler	NA	no	839.0	1055	216	1	no
1	A1	1	1	22	female	right	Other	155	f12_0_p4_1_mono.wav	le monde	NA	no	yes	filler	NA	no	723.0	1961	1238	5	yes
1	A1	1	1	22	female	right	Other	156	f52_0_p2_1_mono.wav	le genre	NA	no	yes	filler	NA	no	889.0	1181	292	1	no
1	A1	1	1	22	female	right	Other	157	t09_2_p2_2_mono.wav	le f'nouil		yes	yes	mismatch	r	yes	820.0	1127	307	5	yes
1	A1	1	1	22	female	right	Other	158	n82_0_p2_1_mono.wav	le sermite	NA	no	no	filler	NA	no	876.0	1652	776	1	yes
1	A1	1	1	22	female	right	Other	159	n10_2_p3_1_mono.wav	le r'got	NA	no	no	filler	r	yes	787.0	2324	1537	1	yes
1	A1	1	1	22	female	right	Other	160	n08_2_p2_1_mono.wav	la s'cotte	NA	no	no	filler	r	yes	817.0	2132	1315	5	no
1	A1	1	1	22	female	right	Other	161	n04_2_p4_1_mono.wav	la r'noise	NA	no	no	filler	r	yes	882.0	2134	1252	1	yes
1	A1	1	1	22	female	right	Other	162	n85_2_p1_1_mono.wav	le s'funt	NA	no	no	filler	r	yes	778.0	1747	969	5	no
1	A1	1	1	22	female	right	Other	163	n55_0_p3_1_mono.wav	le nourd	NA	no	no	filler	NA	no	876.0	2435	1559	1	yes
1	A1	1	1	22	female	right	Other	164	t19_2_p2_2_mono.wav	le ch'nil		yes	yes	mismatch	r	yes	928.0	1187	259	5	yes
1	A1	1	1	22	female	right	Other	165	f15_0_p3_1_mono.wav	le train	NA	no	yes	filler	NA	no	648.0	2997	2349	1	no
1	A1	1	1	22	female	right	Other	166	t20_1_p3_2_mono.wav	le meneau		yes	yes	match	u	yes	629.0	1120	491	5	yes
1	A1	1	1	22	female	right	Other	167	n07_1_p2_1_mono.wav	la bechesse	NA	no	no	filler	u	yes	898.0	2050	1152	1	yes
1	A1	1	1	22	female	right	Other	168	f51_0_p3_1_mono.wav	le chef	NA	no	yes	filler	NA	no	767.0	1114	347	5	yes
1	A1	1	1	22	female	right	Other	169	f14_0_p2_1_mono.wav	le soir	NA	no	yes	filler	NA	no	891.0	1666	775	5	yes
1	A1	1	1	22	female	right	Other	170	n83_0_p4_1_mono.wav	le sogueil	NA	no	no	filler	NA	no	915.0	1324	409	1	yes
1	A1	1	1	22	female	right	Other	171	n28_0_p1_1_mono.wav	la veure	NA	no	no	filler	NA	no	834.0	1353	519	1	yes
1	A1	1	1	22	female	right	Other	172	f43_0_p4_1_mono.wav	la femme	NA	no	yes	filler	NA	no	863.0	1345	482	5	yes
1	A1	1	1	22	female	right	Other	173	n54_0_p1_1_mono.wav	le garfait	NA	no	no	filler	NA	no	936.0	1601	665	1	yes
1	A1	1	1	22	female	right	Other	174	n68_0_p3_1_mono.wav	la moucle	NA	no	no	filler	NA	no	808.0	1304	496	1	yes
1	A1	1	1	22	female	right	Other	175	f06_0_p2_1_mono.wav	le point	NA	no	yes	filler	NA	no	697.0	1156	459	5	yes
1	A1	1	1	22	female	right	Other	176	f48_0_p3_1_mono.wav	la scène	NA	no	yes	filler	NA	no	862.0	2241	1379	1	no
1	A1	1	1	22	female	right	Other	177	t12_1_p4_2_mono.wav	le requin		yes	yes	match	u	yes	619.0	1530	911	5	yes
1	A1	1	1	22	female	right	Other	178	n84_0_p4_1_mono.wav	le vort	NA	no	no	filler	NA	no	798.0	1195	397	1	yes
1	A1	1	1	22	female	right	Other	179	n37_0_p4_1_mono.wav	le padiot	NA	no	no	filler	NA	no	652.0	1612	960	1	yes
1	A1	1	1	22	female	right	Other	180	t17_2_p4_2_mono.wav	la s'moule		yes	yes	mismatch	r	yes	894.0	1012	118	5	yes
1	A1	1	1	22	female	right	Other	181	n95_2_p4_1_mono.wav	le r'pus	NA	no	no	filler	r	yes	927.0	1560	633	5	no
1	A1	1	1	22	female	right	Other	182	n92_2_p4_1_mono.wav	le r'gure	NA	no	no	filler	r	yes	878.0	1006	128	1	yes
1	A1	1	1	22	female	right	Other	183	n41_0_p2_1_mono.wav	l'agime	NA	no	no	filler	NA	no	766.0	1386	620	1	yes
1	A1	1	1	22	female	right	Other	184	f69_2_p2_1_mono.wav	le r'gistre	NA	no	yes	filler	r	yes	946.0	1352	406	1	no
1	A1	1	1	22	female	right	Other	185	f07_0_p4_1_mono.wav	l'année	NA	no	yes	filler	NA	no	683.0	1206	523	5	yes
1	A1	1	1	22	female	right	Other	186	n21_2_p1_1_mono.wav	le r'pèze	NA	no	no	filler	r	yes	831.0	2038	1207	1	yes
1	A1	1	1	22	female	right	Other	187	f28_0_p4_1_mono.wav	le frère	NA	no	yes	filler	NA	no	938.0	1092	154	5	yes
1	A1	1	1	22	female	right	Other	188	f64_1_p3_1_mono.wav	le melon	NA	no	yes	filler	u	yes	682.0	1148	466	5	yes
1	A1	1	1	22	female	right	Other	189	n26_0_p4_1_mono.wav	la jun	NA	no	no	filler	NA	no	568.0	947	379	1	yes
1	A1	1	1	22	female	right	Other	190	f68_2_p4_1_mono.wav	le r'tard	NA	no	yes	filler	r	yes	935.0	2866	1931	1	no
1	A1	1	1	22	female	right	Other	191	n15_1_p1_1_mono.wav	la pessade	NA	no	no	filler	u	yes	854.0	1503	649	1	yes
1	A1	1	1	22	female	right	Other	192	t18_1_p2_2_mono.wav	le reflet	C	yes	yes	match	u	yes	845.0	1070	225	5	yes
1	A1	2	2	21	female	right	Other	1	f66_2_p2_1_mono.wav	le d'main	NA	no	yes	filler	r	yes	671.0	2272	1601	1	no
1	A1	2	2	21	female	right	Other	2	n75_0_p2_1_mono.wav	le fège	NA	no	no	filler	NA	no	882.0	2233	1351	5	no
1	A1	2	2	21	female	right	Other	3	f34_0_p1_1_mono.wav	le silence	NA	no	yes	filler	NA	no	931.0	2035	1104	5	yes
1	A1	2	2	21	female	right	Other	4	f72_1_p1_1_mono.wav	la revanche	NA	no	yes	filler	u	yes	900.0	1421	521	5	yes
1	A1	2	2	21	female	right	Other	5	n29_0_p2_1_mono.wav	le choint	NA	no	no	filler	NA	no	721.0	2492	1771	5	no
1	A1	2	2	21	female	right	Other	6	f67_1_p3_1_mono.wav	le refuge	NA	no	yes	filler	u	yes	888.0	2091	1203	1	no
1	A1	2	2	21	female	right	Other	7	f32_0_p4_1_mono.wav	le moment	NA	no	yes	filler	NA	no	534.0	1219	685	5	yes
1	A1	2	2	21	female	right	Other	8	n73_0_p1_1_mono.wav	le buveau	NA	no	no	filler	NA	no	615.0	2139	1524	5	no
1	A1	2	2	21	female	right	Other	9	n03_1_p1_1_mono.wav	la mequisse	NA	no	no	filler	u	yes	908.0	2038	1130	1	yes
1	A1	2	2	21	female	right	Other	10	f50_0_p2_1_mono.wav	le café	NA	no	yes	filler	NA	no	827.0	1505	678	1	no
1	A1	2	2	21	female	right	Other	11	f30_0_p4_1_mono.wav	le garçon	NA	no	yes	filler	NA	no	615.0	1045	430	5	yes
1	A1	2	2	21	female	right	Other	12	n58_0_p1_1_mono.wav	la siture	NA	no	no	filler	NA	no	885.0	1636	751	1	yes
1	A1	2	2	21	female	right	Other	13	n22_2_p3_1_mono.wav	le r'logue	NA	no	no	filler	r	yes	818.0	2014	1196	1	yes
1	A1	2	2	21	female	right	Other	14	n74_0_p1_1_mono.wav	le camont	NA	no	no	filler	NA	no	665.0	2143	1478	1	yes
1	A1	2	2	21	female	right	Other	15	f61_1_p3_1_mono.wav	le semi	NA	no	yes	filler	u	yes	716.0	1753	1037	5	yes
1	A1	2	2	21	female	right	Other	16	n31_0_p1_1_mono.wav	l'annue	NA	no	no	filler	NA	no	692.0	1725	1033	1	yes
1	A1	2	2	21	female	right	Other	17	n01_2_p1_1_mono.wav	la b'rasse	NA	no	no	filler	r	yes	889.0	1994	1105	5	no
1	A1	2	2	21	female	right	Other	18	f62_1_p1_1_mono.wav	le ressort	NA	no	yes	filler	u	yes	881.0	2596	1715	1	no
1	A1	2	2	21	female	right	Other	19	n96_1_p2_1_mono.wav	la refare	NA	no	no	filler	u	yes	986.0	3014	2028	1	yes
1	A1	2	2	21	female	right	Other	20	n70_0_p1_1_mono.wav	la nale	NA	no	no	filler	NA	no	727.0	2091	1364	1	yes
1	A1	2	2	21	female	right	Other	21	f04_0_p2_1_mono.wav	la soeur	NA	no	yes	filler	NA	no	790.0	1323	533	5	yes
1	A1	2	2	21	female	right	Other	22	n89_1_p3_1_mono.wav	le rebil	NA	no	no	filler	u	yes	912.0	1943	1031	1	yes
1	A1	2	2	21	female	right	Other	23	n60_0_p1_1_mono.wav	le tinge	NA	no	no	filler	NA	no	954.0	1892	938	1	yes
1	A1	2	2	21	female	right	Other	24	t22_1_p4_2_mono.wav	le renard		yes	yes	mismatch	u	yes	935.0	1661	726	5	yes
1	A1	2	2	21	female	right	Other	25	n91_2_p3_1_mono.wav	le r'lide	NA	no	no	filler	r	yes	861.0	1626	765	1	yes
1	A1	2	2	21	female	right	Other	26	f71_2_p1_1_mono.wav	le r'cord	NA	no	yes	filler	r	yes	866.0	2213	1347	5	yes
1	A1	2	2	21	female	right	Other	27	f03_0_p4_1_mono.wav	la nuit	NA	no	yes	filler	NA	no	735.0	1498	763	5	yes
1	A1	2	2	21	female	right	Other	28	n05_1_p4_1_mono.wav	le gegnoble	NA	no	no	filler	u	yes	987.0	1664	677	1	yes
1	A1	2	2	21	female	right	Other	29	n49_0_p2_1_mono.wav	la questier	NA	no	no	filler	NA	no	963.0	1731	768	1	yes
1	A1	2	2	21	female	right	Other	30	n27_0_p2_1_mono.wav	la tuit	NA	no	no	filler	NA	no	916.0	1619	703	1	yes
1	A1	2	2	21	female	right	Other	31	n39_0_p2_1_mono.wav	le grat	NA	no	no	filler	NA	no	621.0	1247	626	5	no
1	A1	2	2	21	female	right	Other	32	f19_0_p2_1_mono.wav	l'idée	NA	no	yes	filler	NA	no	796.0	1647	851	1	no
1	A1	2	2	21	female	right	Other	33	n02_2_p2_1_mono.wav	la l'druche	NA	no	no	filler	r	yes	869.0	1635	766	1	yes
1	A1	2	2	21	female	right	Other	34	f41_0_p4_1_mono.wav	la carte	NA	no	yes	filler	NA	no	836.0	1379	543	5	yes
1	A1	2	2	21	female	right	Other	35	f47_0_p2_1_mono.wav	la route	NA	no	yes	filler	NA	no	797.0	1541	744	5	yes
1	A1	2	2	21	female	right	Other	36	n09_2_p1_1_mono.wav	le f'mmeil	NA	no	no	filler	r	yes	927.0	1364	437	1	yes
1	A1	2	2	21	female	right	Other	37	t11_2_p3_2_mono.wav	le r'mous		yes	yes	match	r	yes	562.0	1459	897	1	no
1	A1	2	2	21	female	right	Other	38	n90_2_p2_1_mono.wav	le d'sseau	NA	no	no	filler	r	yes	683.0	1343	660	1	yes
1	A1	2	2	21	female	right	Other	39	f01_0_p4_1_mono.wav	l'oncle	NA	no	yes	filler	NA	no	764.0	1730	966	1	no
1	A1	2	2	21	female	right	Other	40	f44_0_p1_1_mono.wav	la lettre	NA	no	yes	filler	NA	no	839.0	1743	904	5	yes
1	A1	2	2	21	female	right	Other	41	n33_0_p2_1_mono.wav	la juisse	NA	no	no	filler	NA	no	912.0	1877	965	5	no
1	A1	2	2	21	female	right	Other	42	n44_0_p1_1_mono.wav	la fanouille	NA	no	no	filler	NA	no	852.0	1449	597	5	no
1	A1	2	2	21	female	right	Other	43	n65_0_p4_1_mono.wav	la murte	NA	no	no	filler	NA	no	894.0	1455	561	1	yes
1	A1	2	2	21	female	right	Other	44	n62_0_p4_1_mono.wav	l'hosor	NA	no	no	filler	NA	no	774.0	1381	607	1	yes
1	A1	2	2	21	female	right	Other	45	f70_1_p1_1_mono.wav	le semestre	NA	no	yes	filler	u	yes	947.0	2020	1073	1	no
1	A1	2	2	21	female	right	Other	46	t21_2_p3_2_mono.wav	le r'cul		yes	yes	match	r	yes	840.0	1576	736	5	yes
1	A1	2	2	21	female	right	Other	47	n69_0_p1_1_mono.wav	la madaine	NA	no	no	filler	NA	no	885.0	1486	601	5	no
1	A1	2	2	21	female	right	Other	48	f55_0_p4_1_mono.wav	le livre	NA	no	yes	filler	NA	no	872.0	1734	862	1	no
1	A1	2	2	21	female	right	Other	49	f27_0_p1_1_mono.wav	le cadeau	NA	no	yes	filler	NA	no	604.0	1426	822	5	yes
1	A1	2	2	21	female	right	Other	50	n50_0_p2_1_mono.wav	la rille	NA	no	no	filler	NA	no	802.0	1459	657	1	yes
1	A1	2	2	21	female	right	Other	51	f45_0_p2_1_mono.wav	la madame	NA	no	yes	filler	NA	no	767.0	982	215	5	yes
1	A1	2	2	21	female	right	Other	52	n20_1_p1_1_mono.wav	le mejet	NA	no	no	filler	u	yes	793.0	1602	809	1	yes
1	A1	2	2	21	female	right	Other	53	n35_0_p3_1_mono.wav	le missien	NA	no	no	filler	NA	no	721.0	2427	1706	1	yes
1	A1	2	2	21	female	right	Other	54	n19_1_p3_1_mono.wav	le chedel	NA	no	no	filler	u	yes	870.0	1848	978	1	yes
1	A1	2	2	21	female	right	Other	55	n63_0_p1_1_mono.wav	la histienne	NA	no	no	filler	NA	no	786.0	1626	840	1	yes
1	A1	2	2	21	female	right	Other	56	f18_0_p3_1_mono.wav	l'enfant	NA	no	yes	filler	NA	no	513.0	1264	751	5	yes
1	A1	2	2	21	female	right	Other	57	n64_0_p3_1_mono.wav	l'oune	NA	no	no	filler	NA	no	601.0	1599	998	1	yes
1	A1	2	2	21	female	right	Other	58	n52_0_p2_1_mono.wav	le drère	NA	no	no	filler	NA	no	819.0	1625	806	1	yes
1	A1	2	2	21	female	right	Other	59	n11_1_p4_1_mono.wav	le refant	NA	no	no	filler	u	yes	700.0	1878	1178	5	no
1	A1	2	2	21	female	right	Other	60	n61_0_p3_1_mono.wav	l'apure	NA	no	no	filler	NA	no	885.0	2067	1182	1	yes
1	A1	2	2	21	female	right	Other	61	t24_1_p2_2_mono.wav	le faisan	C	yes	yes	mismatch	u	yes	686.0	1270	584	5	yes
1	A1	2	2	21	female	right	Other	62	f57_0_p2_1_mono.wav	le prix	NA	no	yes	filler	NA	no	792.0	1474	682	5	yes
1	A1	2	2	21	female	right	Other	63	f53_0_p2_1_mono.wav	le groupe	NA	no	yes	filler	NA	no	744.0	2433	1689	1	no
1	A1	2	2	21	female	right	Other	64	n86_1_p3_1_mono.wav	le repire	NA	no	no	filler	u	yes	965.0	2296	1331	5	no
1	A1	2	2	21	female	right	Other	65	n76_0_p4_1_mono.wav	le tenre	NA	no	no	filler	NA	no	832.0	1514	682	1	yes
1	A1	2	2	21	female	right	Other	66	t15_2_p2_2_mono.wav	la p'louse		yes	yes	match	r	yes	889.0	1660	771	5	yes
1	A1	2	2	21	female	right	Other	67	n17_2_p4_1_mono.wav	la s'gence	NA	no	no	filler	r	yes	1084.0	2096	1012	5	no
1	A1	2	2	21	female	right	Other	68	t10_1_p1_2_mono.wav	le rebond		yes	yes	mismatch	u	yes	640.0	1347	707	5	yes
1	A1	2	2	21	female	right	Other	69	n34_0_p3_1_mono.wav	le teau	NA	no	no	filler	NA	no	473.0	1071	598	1	yes
1	A1	2	2	21	female	right	Other	70	f40_0_p1_1_mono.wav	l'homme	NA	no	yes	filler	NA	no	638.0	1298	660	1	no
1	A1	2	2	21	female	right	Other	71	f58_0_p1_1_mono.wav	le service	NA	no	yes	filler	NA	no	935.0	1307	372	5	yes
1	A1	2	2	21	female	right	Other	72	n13_1_p2_1_mono.wav	le seblème	NA	no	no	filler	u	yes	846.0	1765	919	1	yes
1	A1	2	2	21	female	right	Other	73	n94_1_p2_1_mono.wav	le sequestre	NA	no	no	filler	u	yes	1007.0	1544	537	1	yes
1	A1	2	2	21	female	right	Other	74	n57_0_p1_1_mono.wav	le ratime	NA	no	no	filler	NA	no	859.0	1636	777	1	yes
1	A1	2	2	21	female	right	Other	75	n77_0_p4_1_mono.wav	le bruc	NA	no	no	filler	NA	no	880.0	1272	392	5	no
1	A1	2	2	21	female	right	Other	76	f24_0_p2_1_mono.wav	la maison	NA	no	yes	filler	NA	no	625.0	1324	699	5	yes
1	A1	2	2	21	female	right	Other	77	n45_0_p3_1_mono.wav	la horgune	NA	no	no	filler	NA	no	731.0	1481	750	1	yes
1	A1	2	2	21	female	right	Other	78	t04_1_p1_2_mono.wav	la reliure		yes	yes	mismatch	u	yes	1026.0	1437	411	5	yes
1	A1	2	2	21	female	right	Other	79	f31_0_p3_1_mono.wav	le jour	NA	no	yes	filler	NA	no	878.0	1143	265	5	yes
1	A1	2	2	21	female	right	Other	80	n24_2_p4_1_mono.wav	le f'quon	NA	no	no	filler	r	yes	660.0	1388	728	1	yes
1	A1	2	2	21	female	right	Other	81	n40_0_p3_1_mono.wav	l'équise	NA	no	no	filler	NA	no	872.0	3068	2196	1	yes
1	A1	2	2	21	female	right	Other	82	n59_0_p4_1_mono.wav	le solti	NA	no	no	filler	NA	no	856.0	1528	672	1	yes
1	A1	2	2	21	female	right	Other	83	t16_1_p1_2_mono.wav	la peluche		yes	yes	mismatch	u	yes	846.0	1169	323	5	yes
1	A1	2	2	21	female	right	Other	84	f13_0_p4_1_mono.wav	le papier	NA	no	yes	filler	NA	no	977.0	1498	521	5	yes
1	A1	2	2	21	female	right	Other	85	f22_0_p3_1_mono.wav	la journée	NA	no	yes	filler	NA	no	793.0	1434	641	5	yes
1	A1	2	2	21	female	right	Other	86	f59_0_p2_1_mono.wav	le soleil	NA	no	yes	filler	NA	no	871.0	1146	275	5	yes
1	A1	2	2	21	female	right	Other	87	f42_0_p1_1_mono.wav	la chance	NA	no	yes	filler	NA	no	807.0	1519	712	5	yes
1	A1	2	2	21	female	right	Other	88	n80_0_p2_1_mono.wav	le péhut	NA	no	no	filler	NA	no	988.0	1491	503	1	yes
1	A1	2	2	21	female	right	Other	89	n67_0_p2_1_mono.wav	la janne	NA	no	no	filler	NA	no	765.0	1771	1006	1	yes
1	A1	2	2	21	female	right	Other	90	f54_0_p1_1_mono.wav	le journal	NA	no	yes	filler	NA	no	910.0	1429	519	5	yes
1	A1	2	2	21	female	right	Other	91	f02_0_p2_1_mono.wav	la main	NA	no	yes	filler	NA	no	540.0	1375	835	1	no
1	A1	2	2	21	female	right	Other	92	t14_1_p2_2_mono.wav	la chenille		yes	yes	mismatch	u	yes	938.0	1301	363	5	yes
1	A1	2	2	21	female	right	Other	93	n42_0_p1_1_mono.wav	l'endos	NA	no	no	filler	NA	no	588.0	1325	737	1	yes
1	A1	2	2	21	female	right	Other	94	f29_0_p3_1_mono.wav	le fromage	NA	no	yes	filler	NA	no	818.0	1186	368	5	yes
1	A1	2	2	21	female	right	Other	95	n38_0_p2_1_mono.wav	le suir	NA	no	no	filler	NA	no	855.0	1507	652	1	yes
1	A1	2	2	21	female	right	Other	96	f65_2_p1_1_mono.wav	le r'paire	NA	no	yes	filler	r	yes	914.0	1370	456	1	no
1	A1	2	2	21	female	right	Other	97	f56_0_p3_1_mono.wav	le pays	NA	no	yes	filler	NA	no	738.0	1800	1062	1	no
1	A1	2	2	21	female	right	Other	98	n06_1_p2_1_mono.wav	le retal	NA	no	no	filler	u	yes	907.0	1684	777	1	yes
1	A1	2	2	21	female	right	Other	99	f21_0_p1_1_mono.wav	la horloge	NA	no	yes	filler	NA	no	691.0	1282	591	1	no
1	A1	2	2	21	female	right	Other	100	t23_2_p2_2_mono.wav	la s'cousse		yes	yes	match	r	yes	865.0	1123	258	5	yes
1	A1	2	2	21	female	right	Other	101	f46_0_p1_1_mono.wav	la part	NA	no	yes	filler	NA	no	851.0	1238	387	1	no
1	A1	2	2	21	female	right	Other	102	n87_1_p3_1_mono.wav	le chenache	NA	no	no	filler	u	yes	881.0	1398	517	5	no
1	A1	2	2	21	female	right	Other	103	n43_0_p2_1_mono.wav	l'ivée	NA	no	no	filler	NA	no	804.0	1417	613	1	yes
1	A1	2	2	21	female	right	Other	104	n71_0_p3_1_mono.wav	la foite	NA	no	no	filler	NA	no	994.0	2010	1016	1	yes
1	A1	2	2	21	female	right	Other	105	n36_0_p1_1_mono.wav	le linde	NA	no	no	filler	NA	no	848.0	2034	1186	1	yes
1	A1	2	2	21	female	right	Other	106	n78_0_p1_1_mono.wav	le jourlingue	NA	no	no	filler	NA	no	993.0	1910	917	1	yes
1	A1	2	2	21	female	right	Other	107	f23_0_p1_1_mono.wav	la mère	NA	no	yes	filler	NA	no	902.0	1237	335	5	yes
1	A1	2	2	21	female	right	Other	108	f09_0_p2_1_mono.wav	la pièce	NA	no	yes	filler	NA	no	830.0	1924	1094	1	no
1	A1	2	2	21	female	right	Other	109	f36_0_p1_1_mono.wav	le type	NA	no	yes	filler	NA	no	965.0	1790	825	1	no
1	A1	2	2	21	female	right	Other	110	f38_0_p3_1_mono.wav	l'hôtel	NA	no	yes	filler	NA	no	721.0	1701	980	1	no
1	A1	2	2	21	female	right	Other	111	f20_0_p3_1_mono.wav	la famille	NA	no	yes	filler	NA	no	856.0	1255	399	5	yes
1	A1	2	2	21	female	right	Other	112	n93_2_p3_1_mono.wav	le r'vercle	NA	no	no	filler	r	yes	806.0	1629	823	1	yes
1	A1	2	2	21	female	right	Other	113	f26_0_p1_1_mono.wav	la ville	NA	no	yes	filler	NA	no	741.0	1060	319	5	yes
1	A1	2	2	21	female	right	Other	114	n18_1_p3_1_mono.wav	le reclin	NA	no	no	filler	u	yes	888.0	1237	349	1	yes
1	A1	2	2	21	female	right	Other	115	n32_0_p1_1_mono.wav	l'heule	NA	no	no	filler	NA	no	678.0	1317	639	1	yes
1	A1	2	2	21	female	right	Other	116	t01_2_p4_2_mono.wav	la b'lette	*	yes	yes	match	r	yes	879.0	1593	714	5	yes
1	A1	2	2	21	female	right	Other	117	n23_2_p1_1_mono.wav	la s'pave	NA	no	no	filler	r	yes	945.0	1686	741	1	yes
1	A1	2	2	21	female	right	Other	118	t02_1_p1_2_mono.wav	la levrette		yes	yes	mismatch	u	yes	856.0	1256	400	5	yes
1	A1	2	2	21	female	right	Other	119	n30_0_p2_1_mono.wav	le pien	NA	no	no	filler	NA	no	691.0	1780	1089	1	yes
1	A1	2	2	21	female	right	Other	120	f39_0_p1_1_mono.wav	l'histoire	NA	no	yes	filler	NA	no	949.0	2447	1498	1	no
1	A1	2	2	21	female	right	Other	121	t08_1_p3_2_mono.wav	la semelle		yes	yes	mismatch	u	yes	916.0	1282	366	5	yes
1	A1	2	2	21	female	right	Other	122	f63_2_p4_1_mono.wav	le ch'val	NA	no	yes	filler	r	yes	779.0	1431	652	1	no
1	A1	2	2	21	female	right	Other	123	n16_2_p4_1_mono.wav	la p'doche	NA	no	no	filler	r	yes	875.0	1272	397	1	yes
1	A1	2	2	21	female	right	Other	124	t07_2_p1_2_mono.wav	la b'daine		yes	yes	match	r	yes	756.0	1165	409	5	yes
1	A1	2	2	21	female	right	Other	125	f17_0_p4_1_mono.wav	l'accord	NA	no	yes	filler	NA	no	866.0	3241	2375	1	no
1	A1	2	2	21	female	right	Other	126	t13_2_p3_2_mono.wav	le s'vrage		yes	yes	match	r	yes	998.0	1964	966	5	yes
1	A1	2	2	21	female	right	Other	127	f10_0_p2_1_mono.wav	le chat	NA	no	yes	filler	NA	no	582.0	1440	858	5	yes
1	A1	2	2	21	female	right	Other	128	n48_0_p2_1_mono.wav	la mainou	NA	no	no	filler	NA	no	740.0	1850	1110	1	yes
1	A1	2	2	21	female	right	Other	129	f11_0_p2_1_mono.wav	le milieu	NA	no	yes	filler	NA	no	753.0	1701	948	5	yes
1	A1	2	2	21	female	right	Other	130	n46_0_p1_1_mono.wav	la jourcie	NA	no	no	filler	NA	no	930.0	1463	533	1	yes
1	A1	2	2	21	female	right	Other	131	f37_0_p2_1_mono.wav	l'amour	NA	no	yes	filler	NA	no	839.0	1560	721	5	yes
1	A1	2	2	21	female	right	Other	132	n53_0_p1_1_mono.wav	le frolège	NA	no	no	filler	NA	no	855.0	1916	1061	1	yes
1	A1	2	2	21	female	right	Other	133	n88_1_p2_1_mono.wav	le messin	NA	no	no	filler	u	yes	704.0	2228	1524	1	yes
1	A1	2	2	21	female	right	Other	134	n47_0_p4_1_mono.wav	la nure	NA	no	no	filler	NA	no	829.0	1762	933	1	yes
1	A1	2	2	21	female	right	Other	135	n56_0_p3_1_mono.wav	le mossu	NA	no	no	filler	NA	no	820.0	1250	430	1	yes
1	A1	2	2	21	female	right	Other	136	t03_2_p2_2_mono.wav	la m'notte		yes	yes	match	r	yes	889.0	1262	373	5	yes
1	A1	2	2	21	female	right	Other	137	n72_0_p3_1_mono.wav	la teune	NA	no	no	filler	NA	no	893.0	1860	967	1	yes
1	A1	2	2	21	female	right	Other	138	f35_0_p4_1_mono.wav	le soldat	NA	no	yes	filler	NA	no	677.0	1424	747	5	yes
1	A1	2	2	21	female	right	Other	139	t06_1_p1_2_mono.wav	le recel		yes	yes	mismatch	u	yes	938.0	2160	1222	1	no
1	A1	2	2	21	female	right	Other	140	f25_0_p3_1_mono.wav	la question	NA	no	yes	filler	NA	no	728.0	1777	1049	1	no
1	A1	2	2	21	female	right	Other	141	n14_1_p1_1_mono.wav	la chemaille	NA	no	no	filler	u	yes	797.0	1668	871	1	yes
1	A1	2	2	21	female	right	Other	142	n79_0_p4_1_mono.wav	le tavre	NA	no	no	filler	NA	no	855.0	1574	719	1	yes
1	A1	2	2	21	female	right	Other	143	f08_0_p4_1_mono.wav	l'heure	NA	no	yes	filler	NA	no	735.0	1464	729	1	no
1	A1	2	2	21	female	right	Other	144	f33_0_p4_1_mono.wav	le rapport	NA	no	yes	filler	NA	no	872.0	1418	546	1	no
1	A1	2	2	21	female	right	Other	145	n12_1_p1_1_mono.wav	le rechant	NA	no	no	filler	u	yes	686.0	1486	800	1	yes
1	A1	2	2	21	female	right	Other	146	f05_0_p2_1_mono.wav	le chien	NA	no	yes	filler	NA	no	668.0	1089	421	5	yes
1	A1	2	2	21	female	right	Other	147	f16_0_p4_1_mono.wav	l'école	NA	no	yes	filler	NA	no	771.0	2127	1356	5	yes
1	A1	2	2	21	female	right	Other	148	t05_2_p3_2_mono.wav	le g'nièvre		yes	yes	match	r	yes	943.0	2770	1827	5	yes
1	A1	2	2	21	female	right	Other	149	n25_0_p1_1_mono.wav	l'incre	NA	no	no	filler	NA	no	771.0	1617	846	1	yes
1	A1	2	2	21	female	right	Other	150	f49_0_p2_1_mono.wav	le bureau	NA	no	yes	filler	NA	no	857.0	1164	307	5	yes
1	A1	2	2	21	female	right	Other	151	n51_0_p4_1_mono.wav	le caffant	NA	no	no	filler	NA	no	644.0	1679	1035	1	yes
1	A1	2	2	21	female	right	Other	152	n81_0_p1_1_mono.wav	le croux	NA	no	no	filler	NA	no	720.0	1818	1098	1	yes
1	A1	2	2	21	female	right	Other	153	n66_0_p2_1_mono.wav	la cance	NA	no	no	filler	NA	no	861.0	1521	660	1	yes
1	A1	2	2	21	female	right	Other	154	f60_0_p1_1_mono.wav	le tour	NA	no	yes	filler	NA	no	839.0	1016	177	5	yes
1	A1	2	2	21	female	right	Other	155	f12_0_p4_1_mono.wav	le monde	NA	no	yes	filler	NA	no	723.0	1742	1019	1	no
1	A1	2	2	21	female	right	Other	156	f52_0_p2_1_mono.wav	le genre	NA	no	yes	filler	NA	no	889.0	1585	696	5	yes
1	A1	2	2	21	female	right	Other	157	t09_2_p2_2_mono.wav	le f'nouil		yes	yes	match	r	yes	820.0	1404	584	5	yes
1	A1	2	2	21	female	right	Other	158	n82_0_p2_1_mono.wav	le sermite	NA	no	no	filler	NA	no	876.0	1785	909	1	yes
1	A1	2	2	21	female	right	Other	159	n10_2_p3_1_mono.wav	le r'got	NA	no	no	filler	r	yes	787.0	1803	1016	5	no
1	A1	2	2	21	female	right	Other	160	n08_2_p2_1_mono.wav	la s'cotte	NA	no	no	filler	r	yes	817.0	1911	1094	1	yes
1	A1	2	2	21	female	right	Other	161	n04_2_p4_1_mono.wav	la r'noise	NA	no	no	filler	r	yes	882.0	1482	600	1	yes
1	A1	2	2	21	female	right	Other	162	n85_2_p1_1_mono.wav	le s'funt	NA	no	no	filler	r	yes	778.0	1332	554	1	yes
1	A1	2	2	21	female	right	Other	163	n55_0_p3_1_mono.wav	le nourd	NA	no	no	filler	NA	no	876.0	1889	1013	1	yes
1	A1	2	2	21	female	right	Other	164	t19_2_p2_2_mono.wav	le ch'nil		yes	yes	match	r	yes	928.0	1327	399	5	yes
1	A1	2	2	21	female	right	Other	165	f15_0_p3_1_mono.wav	le train	NA	no	yes	filler	NA	no	648.0	1773	1125	1	no
1	A1	2	2	21	female	right	Other	166	t20_1_p3_2_mono.wav	le meneau		yes	yes	mismatch	u	yes	629.0	1849	1220	5	yes
1	A1	2	2	21	female	right	Other	167	n07_1_p2_1_mono.wav	la bechesse	NA	no	no	filler	u	yes	898.0	1281	383	1	yes
1	A1	2	2	21	female	right	Other	168	f51_0_p3_1_mono.wav	le chef	NA	no	yes	filler	NA	no	767.0	1319	552	1	no
1	A1	2	2	21	female	right	Other	169	f14_0_p2_1_mono.wav	le soir	NA	no	yes	filler	NA	no	891.0	1638	747	5	yes
1	A1	2	2	21	female	right	Other	170	n83_0_p4_1_mono.wav	le sogueil	NA	no	no	filler	NA	no	915.0	1431	516	1	yes
1	A1	2	2	21	female	right	Other	171	n28_0_p1_1_mono.wav	la veure	NA	no	no	filler	NA	no	834.0	1339	505	1	yes
1	A1	2	2	21	female	right	Other	172	f43_0_p4_1_mono.wav	la femme	NA	no	yes	filler	NA	no	863.0	1289	426	5	yes
1	A1	2	2	21	female	right	Other	173	n54_0_p1_1_mono.wav	le garfait	NA	no	no	filler	NA	no	936.0	1515	579	1	yes
1	A1	2	2	21	female	right	Other	174	n68_0_p3_1_mono.wav	la moucle	NA	no	no	filler	NA	no	808.0	1340	532	1	yes
1	A1	2	2	21	female	right	Other	175	f06_0_p2_1_mono.wav	le point	NA	no	yes	filler	NA	no	697.0	1518	821	5	yes
1	A1	2	2	21	female	right	Other	176	f48_0_p3_1_mono.wav	la scène	NA	no	yes	filler	NA	no	862.0	1503	641	1	no
1	A1	2	2	21	female	right	Other	177	t12_1_p4_2_mono.wav	le requin		yes	yes	mismatch	u	yes	619.0	1033	414	5	yes
1	A1	2	2	21	female	right	Other	178	n84_0_p4_1_mono.wav	le vort	NA	no	no	filler	NA	no	798.0	1378	580	1	yes
1	A1	2	2	21	female	right	Other	179	n37_0_p4_1_mono.wav	le padiot	NA	no	no	filler	NA	no	652.0	1709	1057	1	yes
1	A1	2	2	21	female	right	Other	180	t17_2_p4_2_mono.wav	la s'moule		yes	yes	match	r	yes	894.0	1211	317	5	yes
1	A1	2	2	21	female	right	Other	181	n95_2_p4_1_mono.wav	le r'pus	NA	no	no	filler	r	yes	927.0	2278	1351	1	yes
1	A1	2	2	21	female	right	Other	182	n92_2_p4_1_mono.wav	le r'gure	NA	no	no	filler	r	yes	878.0	1502	624	1	yes
1	A1	2	2	21	female	right	Other	183	n41_0_p2_1_mono.wav	l'agime	NA	no	no	filler	NA	no	766.0	1941	1175	1	yes
1	A1	2	2	21	female	right	Other	184	f69_2_p2_1_mono.wav	le r'gistre	NA	no	yes	filler	r	yes	946.0	1359	413	1	no
1	A1	2	2	21	female	right	Other	185	f07_0_p4_1_mono.wav	l'année	NA	no	yes	filler	NA	no	683.0	2424	1741	1	no
1	A1	2	2	21	female	right	Other	186	n21_2_p1_1_mono.wav	le r'pèze	NA	no	no	filler	r	yes	831.0	1215	384	1	yes
1	A1	2	2	21	female	right	Other	187	f28_0_p4_1_mono.wav	le frère	NA	no	yes	filler	NA	no	938.0	1322	384	5	yes
1	A1	2	2	21	female	right	Other	188	f64_1_p3_1_mono.wav	le melon	NA	no	yes	filler	u	yes	682.0	1598	916	5	yes
1	A1	2	2	21	female	right	Other	189	n26_0_p4_1_mono.wav	la jun	NA	no	no	filler	NA	no	568.0	1887	1319	1	yes
1	A1	2	2	21	female	right	Other	190	f68_2_p4_1_mono.wav	le r'tard	NA	no	yes	filler	r	yes	935.0	1953	1018	1	no
1	A1	2	2	21	female	right	Other	191	n15_1_p1_1_mono.wav	la pessade	NA	no	no	filler	u	yes	854.0	1325	471	1	yes
1	A1	2	2	21	female	right	Other	192	t18_1_p2_2_mono.wav	le reflet	C	yes	yes	mismatch	u	yes	845.0	1322	477	5	yes
1	A1	1	17	18	male	right	Other	1	f66_2_p2_1_mono.wav	le d'main	NA	no	yes	filler	r	yes	671.0	3338	2667	1	no
1	A1	1	17	18	male	right	Other	2	n75_0_p2_1_mono.wav	le fège	NA	no	no	filler	NA	no	882.0	2309	1427	5	no
1	A1	1	17	18	male	right	Other	3	f34_0_p1_1_mono.wav	le silence	NA	no	yes	filler	NA	no	931.0	1805	874	5	yes
1	A1	1	17	18	male	right	Other	4	f72_1_p1_1_mono.wav	la revanche	NA	no	yes	filler	u	yes	900.0	2099	1199	5	yes
1	A1	1	17	18	male	right	Other	5	n29_0_p2_1_mono.wav	le choint	NA	no	no	filler	NA	no	721.0	1986	1265	1	yes
1	A1	1	17	18	male	right	Other	6	f67_1_p3_1_mono.wav	le refuge	NA	no	yes	filler	u	yes	888.0	2988	2100	5	yes
1	A1	1	17	18	male	right	Other	7	f32_0_p4_1_mono.wav	le moment	NA	no	yes	filler	NA	no	534.0	1544	1010	5	yes
1	A1	1	17	18	male	right	Other	8	n73_0_p1_1_mono.wav	le buveau	NA	no	no	filler	NA	no	615.0	2015	1400	5	no
1	A1	1	17	18	male	right	Other	9	n03_1_p1_1_mono.wav	la mequisse	NA	no	no	filler	u	yes	908.0	3481	2573	1	yes
1	A1	1	17	18	male	right	Other	10	f50_0_p2_1_mono.wav	le café	NA	no	yes	filler	NA	no	827.0	2768	1941	1	no
1	A1	1	17	18	male	right	Other	11	f30_0_p4_1_mono.wav	le garçon	NA	no	yes	filler	NA	no	615.0	1408	793	5	yes
1	A1	1	17	18	male	right	Other	12	n58_0_p1_1_mono.wav	la siture	NA	no	no	filler	NA	no	885.0	2602	1717	1	yes
1	A1	1	17	18	male	right	Other	13	n22_2_p3_1_mono.wav	le r'logue	NA	no	no	filler	r	yes	818.0	2466	1648	5	no
1	A1	1	17	18	male	right	Other	14	n74_0_p1_1_mono.wav	le camont	NA	no	no	filler	NA	no	665.0	4407	3742	1	yes
1	A1	1	17	18	male	right	Other	15	f61_1_p3_1_mono.wav	le semi	NA	no	yes	filler	u	yes	716.0	2688	1972	1	no
1	A1	1	17	18	male	right	Other	16	n31_0_p1_1_mono.wav	l'annue	NA	no	no	filler	NA	no	692.0	2777	2085	5	no
1	A1	1	17	18	male	right	Other	17	n01_2_p1_1_mono.wav	la b'rasse	NA	no	no	filler	r	yes	889.0	1805	916	5	no
1	A1	1	17	18	male	right	Other	18	f62_1_p1_1_mono.wav	le ressort	NA	no	yes	filler	u	yes	881.0	1939	1058	1	no
1	A1	1	17	18	male	right	Other	19	n96_1_p2_1_mono.wav	la refare	NA	no	no	filler	u	yes	986.0	2037	1051	1	yes
1	A1	1	17	18	male	right	Other	20	n70_0_p1_1_mono.wav	la nale	NA	no	no	filler	NA	no	727.0	2872	2145	1	yes
1	A1	1	17	18	male	right	Other	21	f04_0_p2_1_mono.wav	la soeur	NA	no	yes	filler	NA	no	790.0	2886	2096	5	yes
1	A1	1	17	18	male	right	Other	22	n89_1_p3_1_mono.wav	le rebil	NA	no	no	filler	u	yes	912.0	2205	1293	1	yes
1	A1	1	17	18	male	right	Other	23	n60_0_p1_1_mono.wav	le tinge	NA	no	no	filler	NA	no	954.0	2511	1557	1	yes
1	A1	1	17	18	male	right	Other	24	t22_1_p4_2_mono.wav	le renard		yes	yes	match	u	yes	935.0	1661	726	5	yes
1	A1	1	17	18	male	right	Other	25	n91_2_p3_1_mono.wav	le r'lide	NA	no	no	filler	r	yes	861.0	1768	907	1	yes
1	A1	1	17	18	male	right	Other	26	f71_2_p1_1_mono.wav	le r'cord	NA	no	yes	filler	r	yes	866.0	3438	2572	5	yes
1	A1	1	17	18	male	right	Other	27	f03_0_p4_1_mono.wav	la nuit	NA	no	yes	filler	NA	no	735.0	2226	1491	1	no
1	A1	1	17	18	male	right	Other	28	n05_1_p4_1_mono.wav	le gegnoble	NA	no	no	filler	u	yes	987.0	2269	1282	1	yes
1	A1	1	17	18	male	right	Other	29	n49_0_p2_1_mono.wav	la questier	NA	no	no	filler	NA	no	963.0	2660	1697	1	yes
1	A1	1	17	18	male	right	Other	30	n27_0_p2_1_mono.wav	la tuit	NA	no	no	filler	NA	no	916.0	3927	3011	1	yes
1	A1	1	17	18	male	right	Other	31	n39_0_p2_1_mono.wav	le grat	NA	no	no	filler	NA	no	621.0	4012	3391	1	yes
1	A1	1	17	18	male	right	Other	32	f19_0_p2_1_mono.wav	l'idée	NA	no	yes	filler	NA	no	796.0	3857	3061	1	no
1	A1	1	17	18	male	right	Other	33	n02_2_p2_1_mono.wav	la l'druche	NA	no	no	filler	r	yes	869.0	5299	4430	1	yes
1	A1	1	17	18	male	right	Other	34	f41_0_p4_1_mono.wav	la carte	NA	no	yes	filler	NA	no	836.0	1740	904	5	yes
1	A1	1	17	18	male	right	Other	35	f47_0_p2_1_mono.wav	la route	NA	no	yes	filler	NA	no	797.0	1630	833	5	yes
1	A1	1	17	18	male	right	Other	36	n09_2_p1_1_mono.wav	le f'mmeil	NA	no	no	filler	r	yes	927.0	2815	1888	1	yes
1	A1	1	17	18	male	right	Other	37	t11_2_p3_2_mono.wav	le r'mous		yes	yes	mismatch	r	yes	562.0	3114	2552	1	no
1	A1	1	17	18	male	right	Other	38	n90_2_p2_1_mono.wav	le d'sseau	NA	no	no	filler	r	yes	683.0	3473	2790	1	yes
1	A1	1	17	18	male	right	Other	39	f01_0_p4_1_mono.wav	l'oncle	NA	no	yes	filler	NA	no	764.0	3480	2716	1	no
1	A1	1	17	18	male	right	Other	40	f44_0_p1_1_mono.wav	la lettre	NA	no	yes	filler	NA	no	839.0	1668	829	5	yes
1	A1	1	17	18	male	right	Other	41	n33_0_p2_1_mono.wav	la juisse	NA	no	no	filler	NA	no	912.0	2623	1711	1	yes
1	A1	1	17	18	male	right	Other	42	n44_0_p1_1_mono.wav	la fanouille	NA	no	no	filler	NA	no	852.0	5121	4269	1	yes
1	A1	1	17	18	male	right	Other	43	n65_0_p4_1_mono.wav	la murte	NA	no	no	filler	NA	no	894.0	3099	2205	1	yes
1	A1	1	17	18	male	right	Other	44	n62_0_p4_1_mono.wav	l'hosor	NA	no	no	filler	NA	no	774.0	3497	2723	1	yes
1	A1	1	17	18	male	right	Other	45	f70_1_p1_1_mono.wav	le semestre	NA	no	yes	filler	u	yes	947.0	1828	881	5	yes
1	A1	1	17	18	male	right	Other	46	t21_2_p3_2_mono.wav	le r'cul		yes	yes	mismatch	r	yes	840.0	1951	1111	5	yes
1	A1	1	17	18	male	right	Other	47	n69_0_p1_1_mono.wav	la madaine	NA	no	no	filler	NA	no	885.0	1928	1043	5	no
1	A1	1	17	18	male	right	Other	48	f55_0_p4_1_mono.wav	le livre	NA	no	yes	filler	NA	no	872.0	2203	1331	5	yes
1	A1	1	17	18	male	right	Other	49	f27_0_p1_1_mono.wav	le cadeau	NA	no	yes	filler	NA	no	604.0	1640	1036	5	yes
1	A1	1	17	18	male	right	Other	50	n50_0_p2_1_mono.wav	la rille	NA	no	no	filler	NA	no	802.0	2247	1445	1	yes
1	A1	1	17	18	male	right	Other	51	f45_0_p2_1_mono.wav	la madame	NA	no	yes	filler	NA	no	767.0	1529	762	5	yes
1	A1	1	17	18	male	right	Other	52	n20_1_p1_1_mono.wav	le mejet	NA	no	no	filler	u	yes	793.0	3939	3146	1	yes
1	A1	1	17	18	male	right	Other	53	n35_0_p3_1_mono.wav	le missien	NA	no	no	filler	NA	no	721.0	2725	2004	1	yes
1	A1	1	17	18	male	right	Other	54	n19_1_p3_1_mono.wav	le chedel	NA	no	no	filler	u	yes	870.0	5090	4220	1	yes
1	A1	1	17	18	male	right	Other	55	n63_0_p1_1_mono.wav	la histienne	NA	no	no	filler	NA	no	786.0	3478	2692	1	yes
1	A1	1	17	18	male	right	Other	56	f18_0_p3_1_mono.wav	l'enfant	NA	no	yes	filler	NA	no	513.0	1645	1132	5	yes
1	A1	1	17	18	male	right	Other	57	n64_0_p3_1_mono.wav	l'oune	NA	no	no	filler	NA	no	601.0	3600	2999	1	yes
1	A1	1	17	18	male	right	Other	58	n52_0_p2_1_mono.wav	le drère	NA	no	no	filler	NA	no	819.0	2763	1944	1	yes
1	A1	1	17	18	male	right	Other	59	n11_1_p4_1_mono.wav	le refant	NA	no	no	filler	u	yes	700.0	4639	3939	1	yes
1	A1	1	17	18	male	right	Other	60	n61_0_p3_1_mono.wav	l'apure	NA	no	no	filler	NA	no	885.0	6282	5397	1	yes
1	A1	1	17	18	male	right	Other	61	t24_1_p2_2_mono.wav	le faisan	C	yes	yes	match	u	yes	686.0	1486	800	5	yes
1	A1	1	17	18	male	right	Other	62	f57_0_p2_1_mono.wav	le prix	NA	no	yes	filler	NA	no	792.0	2382	1590	1	no
1	A1	1	17	18	male	right	Other	63	f53_0_p2_1_mono.wav	le groupe	NA	no	yes	filler	NA	no	744.0	1615	871	5	yes
1	A1	1	17	18	male	right	Other	64	n86_1_p3_1_mono.wav	le repire	NA	no	no	filler	u	yes	965.0	1985	1020	5	no
1	A1	1	17	18	male	right	Other	65	n76_0_p4_1_mono.wav	le tenre	NA	no	no	filler	NA	no	832.0	2998	2166	1	yes
1	A1	1	17	18	male	right	Other	66	t15_2_p2_2_mono.wav	la p'louse		yes	yes	mismatch	r	yes	889.0	1331	442	5	yes
1	A1	1	17	18	male	right	Other	67	n17_2_p4_1_mono.wav	la s'gence	NA	no	no	filler	r	yes	1084.0	2347	1263	1	yes
1	A1	1	17	18	male	right	Other	68	t10_1_p1_2_mono.wav	le rebond		yes	yes	match	u	yes	640.0	1608	968	5	yes
1	A1	1	17	18	male	right	Other	69	n34_0_p3_1_mono.wav	le teau	NA	no	no	filler	NA	no	473.0	2264	1791	1	yes
1	A1	1	17	18	male	right	Other	70	f40_0_p1_1_mono.wav	l'homme	NA	no	yes	filler	NA	no	638.0	2083	1445	5	yes
1	A1	1	17	18	male	right	Other	71	f58_0_p1_1_mono.wav	le service	NA	no	yes	filler	NA	no	935.0	2033	1098	5	yes
1	A1	1	17	18	male	right	Other	72	n13_1_p2_1_mono.wav	le seblème	NA	no	no	filler	u	yes	846.0	2125	1279	1	yes
1	A1	1	17	18	male	right	Other	73	n94_1_p2_1_mono.wav	le sequestre	NA	no	no	filler	u	yes	1007.0	3092	2085	1	yes
1	A1	1	17	18	male	right	Other	74	n57_0_p1_1_mono.wav	le ratime	NA	no	no	filler	NA	no	859.0	2877	2018	1	yes
1	A1	1	17	18	male	right	Other	75	n77_0_p4_1_mono.wav	le bruc	NA	no	no	filler	NA	no	880.0	3044	2164	1	yes
1	A1	1	17	18	male	right	Other	76	f24_0_p2_1_mono.wav	la maison	NA	no	yes	filler	NA	no	625.0	3838	3213	1	no
1	A1	1	17	18	male	right	Other	77	n45_0_p3_1_mono.wav	la horgune	NA	no	no	filler	NA	no	731.0	1985	1254	5	no
1	A1	1	17	18	male	right	Other	78	t04_1_p1_2_mono.wav	la reliure		yes	yes	match	u	yes	1026.0	2509	1483	1	no
1	A1	1	17	18	male	right	Other	79	f31_0_p3_1_mono.wav	le jour	NA	no	yes	filler	NA	no	878.0	1309	431	5	yes
1	A1	1	17	18	male	right	Other	80	n24_2_p4_1_mono.wav	le f'quon	NA	no	no	filler	r	yes	660.0	2000	1340	1	yes
1	A1	1	17	18	male	right	Other	81	n40_0_p3_1_mono.wav	l'équise	NA	no	no	filler	NA	no	872.0	4779	3907	1	yes
1	A1	1	17	18	male	right	Other	82	n59_0_p4_1_mono.wav	le solti	NA	no	no	filler	NA	no	856.0	3090	2234	1	yes
1	A1	1	17	18	male	right	Other	83	t16_1_p1_2_mono.wav	la peluche		yes	yes	match	u	yes	846.0	1422	576	5	yes
1	A1	1	17	18	male	right	Other	84	f13_0_p4_1_mono.wav	le papier	NA	no	yes	filler	NA	no	977.0	2064	1087	5	yes
1	A1	1	17	18	male	right	Other	85	f22_0_p3_1_mono.wav	la journée	NA	no	yes	filler	NA	no	793.0	1369	576	5	yes
1	A1	1	17	18	male	right	Other	86	f59_0_p2_1_mono.wav	le soleil	NA	no	yes	filler	NA	no	871.0	1082	211	5	yes
1	A1	1	17	18	male	right	Other	87	f42_0_p1_1_mono.wav	la chance	NA	no	yes	filler	NA	no	807.0	1002	195	5	yes
1	A1	1	17	18	male	right	Other	88	n80_0_p2_1_mono.wav	le péhut	NA	no	no	filler	NA	no	988.0	1928	940	1	yes
1	A1	1	17	18	male	right	Other	89	n67_0_p2_1_mono.wav	la janne	NA	no	no	filler	NA	no	765.0	2328	1563	1	yes
1	A1	1	17	18	male	right	Other	90	f54_0_p1_1_mono.wav	le journal	NA	no	yes	filler	NA	no	910.0	1322	412	5	yes
1	A1	1	17	18	male	right	Other	91	f02_0_p2_1_mono.wav	la main	NA	no	yes	filler	NA	no	540.0	2522	1982	1	no
1	A1	1	17	18	male	right	Other	92	t14_1_p2_2_mono.wav	la chenille		yes	yes	match	u	yes	938.0	1385	447	5	yes
1	A1	1	17	18	male	right	Other	93	n42_0_p1_1_mono.wav	l'endos	NA	no	no	filler	NA	no	588.0	1439	851	1	yes
1	A1	1	17	18	male	right	Other	94	f29_0_p3_1_mono.wav	le fromage	NA	no	yes	filler	NA	no	818.0	1105	287	5	yes
1	A1	1	17	18	male	right	Other	95	n38_0_p2_1_mono.wav	le suir	NA	no	no	filler	NA	no	855.0	3140	2285	1	yes
1	A1	1	17	18	male	right	Other	96	f65_2_p1_1_mono.wav	le r'paire	NA	no	yes	filler	r	yes	914.0	2220	1306	1	no
1	A1	1	17	18	male	right	Other	97	f56_0_p3_1_mono.wav	le pays	NA	no	yes	filler	NA	no	738.0	1806	1068	1	no
1	A1	1	17	18	male	right	Other	98	n06_1_p2_1_mono.wav	le retal	NA	no	no	filler	u	yes	907.0	3652	2745	1	yes
1	A1	1	17	18	male	right	Other	99	f21_0_p1_1_mono.wav	la horloge	NA	no	yes	filler	NA	no	691.0	1355	664	5	yes
1	A1	1	17	18	male	right	Other	100	t23_2_p2_2_mono.wav	la s'cousse		yes	yes	mismatch	r	yes	865.0	2639	1774	1	no
1	A1	1	17	18	male	right	Other	101	f46_0_p1_1_mono.wav	la part	NA	no	yes	filler	NA	no	851.0	4782	3931	1	no
1	A1	1	17	18	male	right	Other	102	n87_1_p3_1_mono.wav	le chenache	NA	no	no	filler	u	yes	881.0	3520	2639	1	yes
1	A1	1	17	18	male	right	Other	103	n43_0_p2_1_mono.wav	l'ivée	NA	no	no	filler	NA	no	804.0	2886	2082	1	yes
1	A1	1	17	18	male	right	Other	104	n71_0_p3_1_mono.wav	la foite	NA	no	no	filler	NA	no	994.0	2054	1060	5	no
1	A1	1	17	18	male	right	Other	105	n36_0_p1_1_mono.wav	le linde	NA	no	no	filler	NA	no	848.0	3828	2980	1	yes
1	A1	1	17	18	male	right	Other	106	n78_0_p1_1_mono.wav	le jourlingue	NA	no	no	filler	NA	no	993.0	3665	2672	1	yes
1	A1	1	17	18	male	right	Other	107	f23_0_p1_1_mono.wav	la mère	NA	no	yes	filler	NA	no	902.0	1332	430	5	yes
1	A1	1	17	18	male	right	Other	108	f09_0_p2_1_mono.wav	la pièce	NA	no	yes	filler	NA	no	830.0	1663	833	1	no
1	A1	1	17	18	male	right	Other	109	f36_0_p1_1_mono.wav	le type	NA	no	yes	filler	NA	no	965.0	1603	638	5	yes
1	A1	1	17	18	male	right	Other	110	f38_0_p3_1_mono.wav	l'hôtel	NA	no	yes	filler	NA	no	721.0	1665	944	5	yes
1	A1	1	17	18	male	right	Other	111	f20_0_p3_1_mono.wav	la famille	NA	no	yes	filler	NA	no	856.0	1327	471	5	yes
1	A1	1	17	18	male	right	Other	112	n93_2_p3_1_mono.wav	le r'vercle	NA	no	no	filler	r	yes	806.0	1623	817	1	yes
1	A1	1	17	18	male	right	Other	113	f26_0_p1_1_mono.wav	la ville	NA	no	yes	filler	NA	no	741.0	1181	440	5	yes
1	A1	1	17	18	male	right	Other	114	n18_1_p3_1_mono.wav	le reclin	NA	no	no	filler	u	yes	888.0	2278	1390	1	yes
1	A1	1	17	18	male	right	Other	115	n32_0_p1_1_mono.wav	l'heule	NA	no	no	filler	NA	no	678.0	2068	1390	1	yes
1	A1	1	17	18	male	right	Other	116	t01_2_p4_2_mono.wav	la b'lette	*	yes	yes	mismatch	r	yes	879.0	3545	2666	1	no
1	A1	1	17	18	male	right	Other	117	n23_2_p1_1_mono.wav	la s'pave	NA	no	no	filler	r	yes	945.0	2970	2025	1	yes
1	A1	1	17	18	male	right	Other	118	t02_1_p1_2_mono.wav	la levrette		yes	yes	match	u	yes	856.0	2006	1150	5	yes
1	A1	1	17	18	male	right	Other	119	n30_0_p2_1_mono.wav	le pien	NA	no	no	filler	NA	no	691.0	2531	1840	1	yes
1	A1	1	17	18	male	right	Other	120	f39_0_p1_1_mono.wav	l'histoire	NA	no	yes	filler	NA	no	949.0	4584	3635	1	no
1	A1	1	17	18	male	right	Other	121	t08_1_p3_2_mono.wav	la semelle		yes	yes	match	u	yes	916.0	1953	1037	5	yes
1	A1	1	17	18	male	right	Other	122	f63_2_p4_1_mono.wav	le ch'val	NA	no	yes	filler	r	yes	779.0	2475	1696	1	no
1	A1	1	17	18	male	right	Other	123	n16_2_p4_1_mono.wav	la p'doche	NA	no	no	filler	r	yes	875.0	4352	3477	1	yes
1	A1	1	17	18	male	right	Other	124	t07_2_p1_2_mono.wav	la b'daine		yes	yes	mismatch	r	yes	756.0	3454	2698	1	no
1	A1	1	17	18	male	right	Other	125	f17_0_p4_1_mono.wav	l'accord	NA	no	yes	filler	NA	no	866.0	1913	1047	5	yes
1	A1	1	17	18	male	right	Other	126	t13_2_p3_2_mono.wav	le s'vrage		yes	yes	mismatch	r	yes	998.0	4611	3613	1	no
1	A1	1	17	18	male	right	Other	127	f10_0_p2_1_mono.wav	le chat	NA	no	yes	filler	NA	no	582.0	4381	3799	1	no
1	A1	1	17	18	male	right	Other	128	n48_0_p2_1_mono.wav	la mainou	NA	no	no	filler	NA	no	740.0	1794	1054	5	no
1	A1	1	17	18	male	right	Other	129	f11_0_p2_1_mono.wav	le milieu	NA	no	yes	filler	NA	no	753.0	1392	639	5	yes
1	A1	1	17	18	male	right	Other	130	n46_0_p1_1_mono.wav	la jourcie	NA	no	no	filler	NA	no	930.0	2336	1406	1	yes
1	A1	1	17	18	male	right	Other	131	f37_0_p2_1_mono.wav	l'amour	NA	no	yes	filler	NA	no	839.0	1470	631	5	yes
1	A1	1	17	18	male	right	Other	132	n53_0_p1_1_mono.wav	le frolège	NA	no	no	filler	NA	no	855.0	1403	548	1	yes
1	A1	1	17	18	male	right	Other	133	n88_1_p2_1_mono.wav	le messin	NA	no	no	filler	u	yes	704.0	2251	1547	1	yes
1	A1	1	17	18	male	right	Other	134	n47_0_p4_1_mono.wav	la nure	NA	no	no	filler	NA	no	829.0	2723	1894	1	yes
1	A1	1	17	18	male	right	Other	135	n56_0_p3_1_mono.wav	le mossu	NA	no	no	filler	NA	no	820.0	3005	2185	1	yes
1	A1	1	17	18	male	right	Other	136	t03_2_p2_2_mono.wav	la m'notte		yes	yes	mismatch	r	yes	889.0	1683	794	5	yes
1	A1	1	17	18	male	right	Other	137	n72_0_p3_1_mono.wav	la teune	NA	no	no	filler	NA	no	893.0	1736	843	1	yes
1	A1	1	17	18	male	right	Other	138	f35_0_p4_1_mono.wav	le soldat	NA	no	yes	filler	NA	no	677.0	1659	982	1	no
1	A1	1	17	18	male	right	Other	139	t06_1_p1_2_mono.wav	le recel		yes	yes	match	u	yes	938.0	1587	649	5	yes
1	A1	1	17	18	male	right	Other	140	f25_0_p3_1_mono.wav	la question	NA	no	yes	filler	NA	no	728.0	1476	748	1	no
1	A1	1	17	18	male	right	Other	141	n14_1_p1_1_mono.wav	la chemaille	NA	no	no	filler	u	yes	797.0	2963	2166	1	yes
1	A1	1	17	18	male	right	Other	142	n79_0_p4_1_mono.wav	le tavre	NA	no	no	filler	NA	no	855.0	3120	2265	1	yes
1	A1	1	17	18	male	right	Other	143	f08_0_p4_1_mono.wav	l'heure	NA	no	yes	filler	NA	no	735.0	2656	1921	5	yes
1	A1	1	17	18	male	right	Other	144	f33_0_p4_1_mono.wav	le rapport	NA	no	yes	filler	NA	no	872.0	1332	460	5	yes
1	A1	1	17	18	male	right	Other	145	n12_1_p1_1_mono.wav	le rechant	NA	no	no	filler	u	yes	686.0	2513	1827	1	yes
1	A1	1	17	18	male	right	Other	146	f05_0_p2_1_mono.wav	le chien	NA	no	yes	filler	NA	no	668.0	1244	576	5	yes
1	A1	1	17	18	male	right	Other	147	f16_0_p4_1_mono.wav	l'école	NA	no	yes	filler	NA	no	771.0	1019	248	5	yes
1	A1	1	17	18	male	right	Other	148	t05_2_p3_2_mono.wav	le g'nièvre		yes	yes	mismatch	r	yes	943.0	1295	352	5	yes
1	A1	1	17	18	male	right	Other	149	n25_0_p1_1_mono.wav	l'incre	NA	no	no	filler	NA	no	771.0	2368	1597	1	yes
1	A1	1	17	18	male	right	Other	150	f49_0_p2_1_mono.wav	le bureau	NA	no	yes	filler	NA	no	857.0	1121	264	5	yes
1	A1	1	17	18	male	right	Other	151	n51_0_p4_1_mono.wav	le caffant	NA	no	no	filler	NA	no	644.0	1224	580	1	yes
1	A1	1	17	18	male	right	Other	152	n81_0_p1_1_mono.wav	le croux	NA	no	no	filler	NA	no	720.0	2213	1493	1	yes
1	A1	1	17	18	male	right	Other	153	n66_0_p2_1_mono.wav	la cance	NA	no	no	filler	NA	no	861.0	2245	1384	1	yes
1	A1	1	17	18	male	right	Other	154	f60_0_p1_1_mono.wav	le tour	NA	no	yes	filler	NA	no	839.0	1621	782	5	yes
1	A1	1	17	18	male	right	Other	155	f12_0_p4_1_mono.wav	le monde	NA	no	yes	filler	NA	no	723.0	1384	661	5	yes
1	A1	1	17	18	male	right	Other	156	f52_0_p2_1_mono.wav	le genre	NA	no	yes	filler	NA	no	889.0	3817	2928	1	no
1	A1	1	17	18	male	right	Other	157	t09_2_p2_2_mono.wav	le f'nouil		yes	yes	mismatch	r	yes	820.0	2491	1671	1	no
1	A1	1	17	18	male	right	Other	158	n82_0_p2_1_mono.wav	le sermite	NA	no	no	filler	NA	no	876.0	2675	1799	1	yes
1	A1	1	17	18	male	right	Other	159	n10_2_p3_1_mono.wav	le r'got	NA	no	no	filler	r	yes	787.0	2908	2121	1	yes
1	A1	1	17	18	male	right	Other	160	n08_2_p2_1_mono.wav	la s'cotte	NA	no	no	filler	r	yes	817.0	3404	2587	1	yes
1	A1	1	17	18	male	right	Other	161	n04_2_p4_1_mono.wav	la r'noise	NA	no	no	filler	r	yes	882.0	2458	1576	1	yes
1	A1	1	17	18	male	right	Other	162	n85_2_p1_1_mono.wav	le s'funt	NA	no	no	filler	r	yes	778.0	3115	2337	1	yes
1	A1	1	17	18	male	right	Other	163	n55_0_p3_1_mono.wav	le nourd	NA	no	no	filler	NA	no	876.0	4308	3432	1	yes
1	A1	1	17	18	male	right	Other	164	t19_2_p2_2_mono.wav	le ch'nil		yes	yes	mismatch	r	yes	928.0	1586	658	5	yes
1	A1	1	17	18	male	right	Other	165	f15_0_p3_1_mono.wav	le train	NA	no	yes	filler	NA	no	648.0	1509	861	1	no
1	A1	1	17	18	male	right	Other	166	t20_1_p3_2_mono.wav	le meneau		yes	yes	match	u	yes	629.0	4897	4268	1	no
1	A1	1	17	18	male	right	Other	167	n07_1_p2_1_mono.wav	la bechesse	NA	no	no	filler	u	yes	898.0	1838	940	1	yes
1	A1	1	17	18	male	right	Other	168	f51_0_p3_1_mono.wav	le chef	NA	no	yes	filler	NA	no	767.0	1523	756	5	yes
1	A1	1	17	18	male	right	Other	169	f14_0_p2_1_mono.wav	le soir	NA	no	yes	filler	NA	no	891.0	4905	4014	1	no
1	A1	1	17	18	male	right	Other	170	n83_0_p4_1_mono.wav	le sogueil	NA	no	no	filler	NA	no	915.0	2136	1221	1	yes
1	A1	1	17	18	male	right	Other	171	n28_0_p1_1_mono.wav	la veure	NA	no	no	filler	NA	no	834.0	2540	1706	1	yes
1	A1	1	17	18	male	right	Other	172	f43_0_p4_1_mono.wav	la femme	NA	no	yes	filler	NA	no	863.0	5478	4615	1	no
1	A1	1	17	18	male	right	Other	173	n54_0_p1_1_mono.wav	le garfait	NA	no	no	filler	NA	no	936.0	2219	1283	1	yes
1	A1	1	17	18	male	right	Other	174	n68_0_p3_1_mono.wav	la moucle	NA	no	no	filler	NA	no	808.0	2740	1932	1	yes
1	A1	1	17	18	male	right	Other	175	f06_0_p2_1_mono.wav	le point	NA	no	yes	filler	NA	no	697.0	1504	807	5	yes
1	A1	1	17	18	male	right	Other	176	f48_0_p3_1_mono.wav	la scène	NA	no	yes	filler	NA	no	862.0	4144	3282	1	no
1	A1	1	17	18	male	right	Other	177	t12_1_p4_2_mono.wav	le requin		yes	yes	match	u	yes	619.0	1441	822	5	yes
1	A1	1	17	18	male	right	Other	178	n84_0_p4_1_mono.wav	le vort	NA	no	no	filler	NA	no	798.0	2270	1472	1	yes
1	A1	1	17	18	male	right	Other	179	n37_0_p4_1_mono.wav	le padiot	NA	no	no	filler	NA	no	652.0	2018	1366	1	yes
1	A1	1	17	18	male	right	Other	180	t17_2_p4_2_mono.wav	la s'moule		yes	yes	mismatch	r	yes	894.0	6221	5327	1	no
1	A1	1	17	18	male	right	Other	181	n95_2_p4_1_mono.wav	le r'pus	NA	no	no	filler	r	yes	927.0	2895	1968	1	yes
1	A1	1	17	18	male	right	Other	182	n92_2_p4_1_mono.wav	le r'gure	NA	no	no	filler	r	yes	878.0	2462	1584	1	yes
1	A1	1	17	18	male	right	Other	183	n41_0_p2_1_mono.wav	l'agime	NA	no	no	filler	NA	no	766.0	2887	2121	1	yes
1	A1	1	17	18	male	right	Other	184	f69_2_p2_1_mono.wav	le r'gistre	NA	no	yes	filler	r	yes	946.0	2153	1207	1	no
1	A1	1	17	18	male	right	Other	185	f07_0_p4_1_mono.wav	l'année	NA	no	yes	filler	NA	no	683.0	3153	2470	1	no
1	A1	1	17	18	male	right	Other	186	n21_2_p1_1_mono.wav	le r'pèze	NA	no	no	filler	r	yes	831.0	2852	2021	1	yes
1	A1	1	17	18	male	right	Other	187	f28_0_p4_1_mono.wav	le frère	NA	no	yes	filler	NA	no	938.0	1571	633	5	yes
1	A1	1	17	18	male	right	Other	188	f64_1_p3_1_mono.wav	le melon	NA	no	yes	filler	u	yes	682.0	3534	2852	1	no
1	A1	1	17	18	male	right	Other	189	n26_0_p4_1_mono.wav	la jun	NA	no	no	filler	NA	no	568.0	6948	6380	1	yes
1	A1	1	17	18	male	right	Other	190	f68_2_p4_1_mono.wav	le r'tard	NA	no	yes	filler	r	yes	935.0	3572	2637	1	no
1	A1	1	17	18	male	right	Other	191	n15_1_p1_1_mono.wav	la pessade	NA	no	no	filler	u	yes	854.0	1837	983	1	yes
1	A1	1	17	18	male	right	Other	192	t18_1_p2_2_mono.wav	le reflet	C	yes	yes	match	u	yes	845.0	1318	473	5	yes
1	A1	2	18	21	male	right	Other	1	f66_2_p2_1_mono.wav	le d'main	NA	no	yes	filler	r	yes	671.0	2346	1675	1	no
1	A1	2	18	21	male	right	Other	2	n75_0_p2_1_mono.wav	le fège	NA	no	no	filler	NA	no	882.0	1844	962	1	yes
1	A1	2	18	21	male	right	Other	3	f34_0_p1_1_mono.wav	le silence	NA	no	yes	filler	NA	no	931.0	1351	420	5	yes
1	A1	2	18	21	male	right	Other	4	f72_1_p1_1_mono.wav	la revanche	NA	no	yes	filler	u	yes	900.0	24859	23959	5	yes
1	A1	2	18	21	male	right	Other	5	n29_0_p2_1_mono.wav	le choint	NA	no	no	filler	NA	no	721.0	2550	1829	1	yes
1	A1	2	18	21	male	right	Other	6	f67_1_p3_1_mono.wav	le refuge	NA	no	yes	filler	u	yes	888.0	1875	987	1	no
1	A1	2	18	21	male	right	Other	7	f32_0_p4_1_mono.wav	le moment	NA	no	yes	filler	NA	no	534.0	1209	675	1	no
1	A1	2	18	21	male	right	Other	8	n73_0_p1_1_mono.wav	le buveau	NA	no	no	filler	NA	no	615.0	1414	799	5	no
1	A1	2	18	21	male	right	Other	9	n03_1_p1_1_mono.wav	la mequisse	NA	no	no	filler	u	yes	908.0	1891	983	1	yes
1	A1	2	18	21	male	right	Other	10	f50_0_p2_1_mono.wav	le café	NA	no	yes	filler	NA	no	827.0	1237	410	5	yes
1	A1	2	18	21	male	right	Other	11	f30_0_p4_1_mono.wav	le garçon	NA	no	yes	filler	NA	no	615.0	1209	594	5	yes
1	A1	2	18	21	male	right	Other	12	n58_0_p1_1_mono.wav	la siture	NA	no	no	filler	NA	no	885.0	1404	519	1	yes
1	A1	2	18	21	male	right	Other	13	n22_2_p3_1_mono.wav	le r'logue	NA	no	no	filler	r	yes	818.0	1217	399	1	yes
1	A1	2	18	21	male	right	Other	14	n74_0_p1_1_mono.wav	le camont	NA	no	no	filler	NA	no	665.0	1795	1130	1	yes
1	A1	2	18	21	male	right	Other	15	f61_1_p3_1_mono.wav	le semi	NA	no	yes	filler	u	yes	716.0	1296	580	1	no
1	A1	2	18	21	male	right	Other	16	n31_0_p1_1_mono.wav	l'annue	NA	no	no	filler	NA	no	692.0	2084	1392	1	yes
1	A1	2	18	21	male	right	Other	17	n01_2_p1_1_mono.wav	la b'rasse	NA	no	no	filler	r	yes	889.0	1393	504	1	yes
1	A1	2	18	21	male	right	Other	18	f62_1_p1_1_mono.wav	le ressort	NA	no	yes	filler	u	yes	881.0	1854	973	1	no
1	A1	2	18	21	male	right	Other	19	n96_1_p2_1_mono.wav	la refare	NA	no	no	filler	u	yes	986.0	1971	985	1	yes
1	A1	2	18	21	male	right	Other	20	n70_0_p1_1_mono.wav	la nale	NA	no	no	filler	NA	no	727.0	1982	1255	1	yes
1	A1	2	18	21	male	right	Other	21	f04_0_p2_1_mono.wav	la soeur	NA	no	yes	filler	NA	no	790.0	1189	399	5	yes
1	A1	2	18	21	male	right	Other	22	n89_1_p3_1_mono.wav	le rebil	NA	no	no	filler	u	yes	912.0	1640	728	1	yes
1	A1	2	18	21	male	right	Other	23	n60_0_p1_1_mono.wav	le tinge	NA	no	no	filler	NA	no	954.0	1361	407	1	yes
1	A1	2	18	21	male	right	Other	24	t22_1_p4_2_mono.wav	le renard		yes	yes	mismatch	u	yes	935.0	1544	609	5	yes
1	A1	2	18	21	male	right	Other	25	n91_2_p3_1_mono.wav	le r'lide	NA	no	no	filler	r	yes	861.0	1538	677	1	yes
1	A1	2	18	21	male	right	Other	26	f71_2_p1_1_mono.wav	le r'cord	NA	no	yes	filler	r	yes	866.0	1278	412	1	no
1	A1	2	18	21	male	right	Other	27	f03_0_p4_1_mono.wav	la nuit	NA	no	yes	filler	NA	no	735.0	1498	763	5	yes
1	A1	2	18	21	male	right	Other	28	n05_1_p4_1_mono.wav	le gegnoble	NA	no	no	filler	u	yes	987.0	2317	1330	1	yes
1	A1	2	18	21	male	right	Other	29	n49_0_p2_1_mono.wav	la questier	NA	no	no	filler	NA	no	963.0	1454	491	1	yes
1	A1	2	18	21	male	right	Other	30	n27_0_p2_1_mono.wav	la tuit	NA	no	no	filler	NA	no	916.0	2314	1398	5	no
1	A1	2	18	21	male	right	Other	31	n39_0_p2_1_mono.wav	le grat	NA	no	no	filler	NA	no	621.0	1268	647	1	yes
1	A1	2	18	21	male	right	Other	32	f19_0_p2_1_mono.wav	l'idée	NA	no	yes	filler	NA	no	796.0	1787	991	1	no
1	A1	2	18	21	male	right	Other	33	n02_2_p2_1_mono.wav	la l'druche	NA	no	no	filler	r	yes	869.0	1390	521	1	yes
1	A1	2	18	21	male	right	Other	34	f41_0_p4_1_mono.wav	la carte	NA	no	yes	filler	NA	no	836.0	1345	509	5	yes
1	A1	2	18	21	male	right	Other	35	f47_0_p2_1_mono.wav	la route	NA	no	yes	filler	NA	no	797.0	1337	540	5	yes
1	A1	2	18	21	male	right	Other	36	n09_2_p1_1_mono.wav	le f'mmeil	NA	no	no	filler	r	yes	927.0	1564	637	1	yes
1	A1	2	18	21	male	right	Other	37	t11_2_p3_2_mono.wav	le r'mous		yes	yes	match	r	yes	562.0	2127	1565	1	no
1	A1	2	18	21	male	right	Other	38	n90_2_p2_1_mono.wav	le d'sseau	NA	no	no	filler	r	yes	683.0	1263	580	1	yes
1	A1	2	18	21	male	right	Other	39	f01_0_p4_1_mono.wav	l'oncle	NA	no	yes	filler	NA	no	764.0	1231	467	1	no
1	A1	2	18	21	male	right	Other	40	f44_0_p1_1_mono.wav	la lettre	NA	no	yes	filler	NA	no	839.0	1271	432	5	yes
1	A1	2	18	21	male	right	Other	41	n33_0_p2_1_mono.wav	la juisse	NA	no	no	filler	NA	no	912.0	1206	294	5	no
1	A1	2	18	21	male	right	Other	42	n44_0_p1_1_mono.wav	la fanouille	NA	no	no	filler	NA	no	852.0	1399	547	1	yes
1	A1	2	18	21	male	right	Other	43	n65_0_p4_1_mono.wav	la murte	NA	no	no	filler	NA	no	894.0	1669	775	5	no
1	A1	2	18	21	male	right	Other	44	n62_0_p4_1_mono.wav	l'hosor	NA	no	no	filler	NA	no	774.0	1355	581	1	yes
1	A1	2	18	21	male	right	Other	45	f70_1_p1_1_mono.wav	le semestre	NA	no	yes	filler	u	yes	947.0	1360	413	1	no
1	A1	2	18	21	male	right	Other	46	t21_2_p3_2_mono.wav	le r'cul		yes	yes	match	r	yes	840.0	1046	206	1	no
1	A1	2	18	21	male	right	Other	47	n69_0_p1_1_mono.wav	la madaine	NA	no	no	filler	NA	no	885.0	1371	486	5	no
1	A1	2	18	21	male	right	Other	48	f55_0_p4_1_mono.wav	le livre	NA	no	yes	filler	NA	no	872.0	1357	485	5	yes
1	A1	2	18	21	male	right	Other	49	f27_0_p1_1_mono.wav	le cadeau	NA	no	yes	filler	NA	no	604.0	1008	404	5	yes
1	A1	2	18	21	male	right	Other	50	n50_0_p2_1_mono.wav	la rille	NA	no	no	filler	NA	no	802.0	1165	363	1	yes
1	A1	2	18	21	male	right	Other	51	f45_0_p2_1_mono.wav	la madame	NA	no	yes	filler	NA	no	767.0	917	150	5	yes
1	A1	2	18	21	male	right	Other	52	n20_1_p1_1_mono.wav	le mejet	NA	no	no	filler	u	yes	793.0	1532	739	5	no
1	A1	2	18	21	male	right	Other	53	n35_0_p3_1_mono.wav	le missien	NA	no	no	filler	NA	no	721.0	1537	816	1	yes
1	A1	2	18	21	male	right	Other	54	n19_1_p3_1_mono.wav	le chedel	NA	no	no	filler	u	yes	870.0	1134	264	1	yes
1	A1	2	18	21	male	right	Other	55	n63_0_p1_1_mono.wav	la histienne	NA	no	no	filler	NA	no	786.0	1139	353	1	yes
1	A1	2	18	21	male	right	Other	56	f18_0_p3_1_mono.wav	l'enfant	NA	no	yes	filler	NA	no	513.0	1118	605	5	yes
1	A1	2	18	21	male	right	Other	57	n64_0_p3_1_mono.wav	l'oune	NA	no	no	filler	NA	no	601.0	912	311	1	yes
1	A1	2	18	21	male	right	Other	58	n52_0_p2_1_mono.wav	le drère	NA	no	no	filler	NA	no	819.0	1331	512	1	yes
1	A1	2	18	21	male	right	Other	59	n11_1_p4_1_mono.wav	le refant	NA	no	no	filler	u	yes	700.0	1630	930	1	yes
1	A1	2	18	21	male	right	Other	60	n61_0_p3_1_mono.wav	l'apure	NA	no	no	filler	NA	no	885.0	2126	1241	1	yes
1	A1	2	18	21	male	right	Other	61	t24_1_p2_2_mono.wav	le faisan	C	yes	yes	mismatch	u	yes	686.0	1394	708	1	no
1	A1	2	18	21	male	right	Other	62	f57_0_p2_1_mono.wav	le prix	NA	no	yes	filler	NA	no	792.0	1599	807	1	no
1	A1	2	18	21	male	right	Other	63	f53_0_p2_1_mono.wav	le groupe	NA	no	yes	filler	NA	no	744.0	1405	661	1	no
1	A1	2	18	21	male	right	Other	64	n86_1_p3_1_mono.wav	le repire	NA	no	no	filler	u	yes	965.0	1945	980	5	no
1	A1	2	18	21	male	right	Other	65	n76_0_p4_1_mono.wav	le tenre	NA	no	no	filler	NA	no	832.0	1030	198	1	yes
1	A1	2	18	21	male	right	Other	66	t15_2_p2_2_mono.wav	la p'louse		yes	yes	match	r	yes	889.0	2021	1132	5	yes
1	A1	2	18	21	male	right	Other	67	n17_2_p4_1_mono.wav	la s'gence	NA	no	no	filler	r	yes	1084.0	1106	22	1	yes
1	A1	2	18	21	male	right	Other	68	t10_1_p1_2_mono.wav	le rebond		yes	yes	mismatch	u	yes	640.0	1657	1017	1	no
1	A1	2	18	21	male	right	Other	69	n34_0_p3_1_mono.wav	le teau	NA	no	no	filler	NA	no	473.0	2409	1936	1	yes
1	A1	2	18	21	male	right	Other	70	f40_0_p1_1_mono.wav	l'homme	NA	no	yes	filler	NA	no	638.0	1313	675	1	no
1	A1	2	18	21	male	right	Other	71	f58_0_p1_1_mono.wav	le service	NA	no	yes	filler	NA	no	935.0	1838	903	1	no
1	A1	2	18	21	male	right	Other	72	n13_1_p2_1_mono.wav	le seblème	NA	no	no	filler	u	yes	846.0	1255	409	5	no
1	A1	2	18	21	male	right	Other	73	n94_1_p2_1_mono.wav	le sequestre	NA	no	no	filler	u	yes	1007.0	1087	80	1	yes
1	A1	2	18	21	male	right	Other	74	n57_0_p1_1_mono.wav	le ratime	NA	no	no	filler	NA	no	859.0	1390	531	1	yes
1	A1	2	18	21	male	right	Other	75	n77_0_p4_1_mono.wav	le bruc	NA	no	no	filler	NA	no	880.0	1453	573	5	no
1	A1	2	18	21	male	right	Other	76	f24_0_p2_1_mono.wav	la maison	NA	no	yes	filler	NA	no	625.0	1221	596	5	yes
1	A1	2	18	21	male	right	Other	77	n45_0_p3_1_mono.wav	la horgune	NA	no	no	filler	NA	no	731.0	1432	701	1	yes
1	A1	2	18	21	male	right	Other	78	t04_1_p1_2_mono.wav	la reliure		yes	yes	mismatch	u	yes	1026.0	1806	780	5	yes
1	A1	2	18	21	male	right	Other	79	f31_0_p3_1_mono.wav	le jour	NA	no	yes	filler	NA	no	878.0	1045	167	5	yes
1	A1	2	18	21	male	right	Other	80	n24_2_p4_1_mono.wav	le f'quon	NA	no	no	filler	r	yes	660.0	1392	732	1	yes
1	A1	2	18	21	male	right	Other	81	n40_0_p3_1_mono.wav	l'équise	NA	no	no	filler	NA	no	872.0	1172	300	1	yes
1	A1	2	18	21	male	right	Other	82	n59_0_p4_1_mono.wav	le solti	NA	no	no	filler	NA	no	856.0	1003	147	1	yes
1	A1	2	18	21	male	right	Other	83	t16_1_p1_2_mono.wav	la peluche		yes	yes	mismatch	u	yes	846.0	963	117	1	no
1	A1	2	18	21	male	right	Other	84	f13_0_p4_1_mono.wav	le papier	NA	no	yes	filler	NA	no	977.0	1369	392	1	no
1	A1	2	18	21	male	right	Other	85	f22_0_p3_1_mono.wav	la journée	NA	no	yes	filler	NA	no	793.0	1071	278	5	yes
1	A1	2	18	21	male	right	Other	86	f59_0_p2_1_mono.wav	le soleil	NA	no	yes	filler	NA	no	871.0	998	127	5	yes
1	A1	2	18	21	male	right	Other	87	f42_0_p1_1_mono.wav	la chance	NA	no	yes	filler	NA	no	807.0	1136	329	5	yes
1	A1	2	18	21	male	right	Other	88	n80_0_p2_1_mono.wav	le péhut	NA	no	no	filler	NA	no	988.0	1246	258	1	yes
1	A1	2	18	21	male	right	Other	89	n67_0_p2_1_mono.wav	la janne	NA	no	no	filler	NA	no	765.0	1021	256	1	yes
1	A1	2	18	21	male	right	Other	90	f54_0_p1_1_mono.wav	le journal	NA	no	yes	filler	NA	no	910.0	1208	298	5	yes
1	A1	2	18	21	male	right	Other	91	f02_0_p2_1_mono.wav	la main	NA	no	yes	filler	NA	no	540.0	1417	877	5	yes
1	A1	2	18	21	male	right	Other	92	t14_1_p2_2_mono.wav	la chenille		yes	yes	mismatch	u	yes	938.0	1056	118	1	no
1	A1	2	18	21	male	right	Other	93	n42_0_p1_1_mono.wav	l'endos	NA	no	no	filler	NA	no	588.0	1910	1322	1	yes
1	A1	2	18	21	male	right	Other	94	f29_0_p3_1_mono.wav	le fromage	NA	no	yes	filler	NA	no	818.0	1091	273	5	yes
1	A1	2	18	21	male	right	Other	95	n38_0_p2_1_mono.wav	le suir	NA	no	no	filler	NA	no	855.0	1972	1117	1	yes
1	A1	2	18	21	male	right	Other	96	f65_2_p1_1_mono.wav	le r'paire	NA	no	yes	filler	r	yes	914.0	1219	305	1	no
1	A1	2	18	21	male	right	Other	97	f56_0_p3_1_mono.wav	le pays	NA	no	yes	filler	NA	no	738.0	1094	356	1	no
1	A1	2	18	21	male	right	Other	98	n06_1_p2_1_mono.wav	le retal	NA	no	no	filler	u	yes	907.0	1647	740	1	yes
1	A1	2	18	21	male	right	Other	99	f21_0_p1_1_mono.wav	la horloge	NA	no	yes	filler	NA	no	691.0	1007	316	1	no
1	A1	2	18	21	male	right	Other	100	t23_2_p2_2_mono.wav	la s'cousse		yes	yes	match	r	yes	865.0	1592	727	1	no
1	A1	2	18	21	male	right	Other	101	f46_0_p1_1_mono.wav	la part	NA	no	yes	filler	NA	no	851.0	1421	570	1	no
1	A1	2	18	21	male	right	Other	102	n87_1_p3_1_mono.wav	le chenache	NA	no	no	filler	u	yes	881.0	1188	307	1	yes
1	A1	2	18	21	male	right	Other	103	n43_0_p2_1_mono.wav	l'ivée	NA	no	no	filler	NA	no	804.0	1356	552	1	yes
1	A1	2	18	21	male	right	Other	104	n71_0_p3_1_mono.wav	la foite	NA	no	no	filler	NA	no	994.0	1494	500	1	yes
1	A1	2	18	21	male	right	Other	105	n36_0_p1_1_mono.wav	le linde	NA	no	no	filler	NA	no	848.0	1453	605	1	yes
1	A1	2	18	21	male	right	Other	106	n78_0_p1_1_mono.wav	le jourlingue	NA	no	no	filler	NA	no	993.0	1242	249	1	yes
1	A1	2	18	21	male	right	Other	107	f23_0_p1_1_mono.wav	la mère	NA	no	yes	filler	NA	no	902.0	916	14	5	yes
1	A1	2	18	21	male	right	Other	108	f09_0_p2_1_mono.wav	la pièce	NA	no	yes	filler	NA	no	830.0	1122	292	1	no
1	A1	2	18	21	male	right	Other	109	f36_0_p1_1_mono.wav	le type	NA	no	yes	filler	NA	no	965.0	1406	441	1	no
1	A1	2	18	21	male	right	Other	110	f38_0_p3_1_mono.wav	l'hôtel	NA	no	yes	filler	NA	no	721.0	1364	643	5	yes
1	A1	2	18	21	male	right	Other	111	f20_0_p3_1_mono.wav	la famille	NA	no	yes	filler	NA	no	856.0	2332	1476	1	no
1	A1	2	18	21	male	right	Other	112	n93_2_p3_1_mono.wav	le r'vercle	NA	no	no	filler	r	yes	806.0	2103	1297	1	yes
1	A1	2	18	21	male	right	Other	113	f26_0_p1_1_mono.wav	la ville	NA	no	yes	filler	NA	no	741.0	1057	316	5	yes
1	A1	2	18	21	male	right	Other	114	n18_1_p3_1_mono.wav	le reclin	NA	no	no	filler	u	yes	888.0	1273	385	1	yes
1	A1	2	18	21	male	right	Other	115	n32_0_p1_1_mono.wav	l'heule	NA	no	no	filler	NA	no	678.0	1098	420	1	yes
1	A1	2	18	21	male	right	Other	116	t01_2_p4_2_mono.wav	la b'lette	*	yes	yes	match	r	yes	879.0	1622	743	5	yes
1	A1	2	18	21	male	right	Other	117	n23_2_p1_1_mono.wav	la s'pave	NA	no	no	filler	r	yes	945.0	1327	382	1	yes
1	A1	2	18	21	male	right	Other	118	t02_1_p1_2_mono.wav	la levrette		yes	yes	mismatch	u	yes	856.0	1615	759	5	yes
1	A1	2	18	21	male	right	Other	119	n30_0_p2_1_mono.wav	le pien	NA	no	no	filler	NA	no	691.0	1014	323	1	yes
1	A1	2	18	21	male	right	Other	120	f39_0_p1_1_mono.wav	l'histoire	NA	no	yes	filler	NA	no	949.0	1099	150	1	no
1	A1	2	18	21	male	right	Other	121	t08_1_p3_2_mono.wav	la semelle		yes	yes	mismatch	u	yes	916.0	1486	570	1	no
1	A1	2	18	21	male	right	Other	122	f63_2_p4_1_mono.wav	le ch'val	NA	no	yes	filler	r	yes	779.0	1224	445	1	no
1	A1	2	18	21	male	right	Other	123	n16_2_p4_1_mono.wav	la p'doche	NA	no	no	filler	r	yes	875.0	1263	388	1	yes
1	A1	2	18	21	male	right	Other	124	t07_2_p1_2_mono.wav	la b'daine		yes	yes	match	r	yes	756.0	985	229	1	no
1	A1	2	18	21	male	right	Other	125	f17_0_p4_1_mono.wav	l'accord	NA	no	yes	filler	NA	no	866.0	1927	1061	1	no
1	A1	2	18	21	male	right	Other	126	t13_2_p3_2_mono.wav	le s'vrage		yes	yes	match	r	yes	998.0	1534	536	1	no
1	A1	2	18	21	male	right	Other	127	f10_0_p2_1_mono.wav	le chat	NA	no	yes	filler	NA	no	582.0	1112	530	1	no
1	A1	2	18	21	male	right	Other	128	n48_0_p2_1_mono.wav	la mainou	NA	no	no	filler	NA	no	740.0	1950	1210	5	no
1	A1	2	18	21	male	right	Other	129	f11_0_p2_1_mono.wav	le milieu	NA	no	yes	filler	NA	no	753.0	1215	462	1	no
1	A1	2	18	21	male	right	Other	130	n46_0_p1_1_mono.wav	la jourcie	NA	no	no	filler	NA	no	930.0	1149	219	1	yes
1	A1	2	18	21	male	right	Other	131	f37_0_p2_1_mono.wav	l'amour	NA	no	yes	filler	NA	no	839.0	1470	631	5	yes
1	A1	2	18	21	male	right	Other	132	n53_0_p1_1_mono.wav	le frolège	NA	no	no	filler	NA	no	855.0	1335	480	1	yes
1	A1	2	18	21	male	right	Other	133	n88_1_p2_1_mono.wav	le messin	NA	no	no	filler	u	yes	704.0	1171	467	1	yes
1	A1	2	18	21	male	right	Other	134	n47_0_p4_1_mono.wav	la nure	NA	no	no	filler	NA	no	829.0	1141	312	1	yes
1	A1	2	18	21	male	right	Other	135	n56_0_p3_1_mono.wav	le mossu	NA	no	no	filler	NA	no	820.0	1080	260	1	yes
1	A1	2	18	21	male	right	Other	136	t03_2_p2_2_mono.wav	la m'notte		yes	yes	match	r	yes	889.0	1031	142	1	no
1	A1	2	18	21	male	right	Other	137	n72_0_p3_1_mono.wav	la teune	NA	no	no	filler	NA	no	893.0	1095	202	1	yes
1	A1	2	18	21	male	right	Other	138	f35_0_p4_1_mono.wav	le soldat	NA	no	yes	filler	NA	no	677.0	1328	651	5	yes
1	A1	2	18	21	male	right	Other	139	t06_1_p1_2_mono.wav	le recel		yes	yes	mismatch	u	yes	938.0	1711	773	1	no
1	A1	2	18	21	male	right	Other	140	f25_0_p3_1_mono.wav	la question	NA	no	yes	filler	NA	no	728.0	963	235	1	no
1	A1	2	18	21	male	right	Other	141	n14_1_p1_1_mono.wav	la chemaille	NA	no	no	filler	u	yes	797.0	1147	350	1	yes
1	A1	2	18	21	male	right	Other	142	n79_0_p4_1_mono.wav	le tavre	NA	no	no	filler	NA	no	855.0	1458	603	1	yes
1	A1	2	18	21	male	right	Other	143	f08_0_p4_1_mono.wav	l'heure	NA	no	yes	filler	NA	no	735.0	944	209	1	no
1	A1	2	18	21	male	right	Other	144	f33_0_p4_1_mono.wav	le rapport	NA	no	yes	filler	NA	no	872.0	1761	889	5	yes
1	A1	2	18	21	male	right	Other	145	n12_1_p1_1_mono.wav	le rechant	NA	no	no	filler	u	yes	686.0	984	298	1	yes
1	A1	2	18	21	male	right	Other	146	f05_0_p2_1_mono.wav	le chien	NA	no	yes	filler	NA	no	668.0	1035	367	1	no
1	A1	2	18	21	male	right	Other	147	f16_0_p4_1_mono.wav	l'école	NA	no	yes	filler	NA	no	771.0	1222	451	5	yes
1	A1	2	18	21	male	right	Other	148	t05_2_p3_2_mono.wav	le g'nièvre		yes	yes	match	r	yes	943.0	1342	399	1	no
1	A1	2	18	21	male	right	Other	149	n25_0_p1_1_mono.wav	l'incre	NA	no	no	filler	NA	no	771.0	967	196	1	yes
1	A1	2	18	21	male	right	Other	150	f49_0_p2_1_mono.wav	le bureau	NA	no	yes	filler	NA	no	857.0	928	71	5	yes
1	A1	2	18	21	male	right	Other	151	n51_0_p4_1_mono.wav	le caffant	NA	no	no	filler	NA	no	644.0	1265	621	1	yes
1	A1	2	18	21	male	right	Other	152	n81_0_p1_1_mono.wav	le croux	NA	no	no	filler	NA	no	720.0	1230	510	1	yes
1	A1	2	18	21	male	right	Other	153	n66_0_p2_1_mono.wav	la cance	NA	no	no	filler	NA	no	861.0	1472	611	1	yes
1	A1	2	18	21	male	right	Other	154	f60_0_p1_1_mono.wav	le tour	NA	no	yes	filler	NA	no	839.0	1328	489	5	yes
1	A1	2	18	21	male	right	Other	155	f12_0_p4_1_mono.wav	le monde	NA	no	yes	filler	NA	no	723.0	923	200	5	yes
1	A1	2	18	21	male	right	Other	156	f52_0_p2_1_mono.wav	le genre	NA	no	yes	filler	NA	no	889.0	1472	583	1	no
1	A1	2	18	21	male	right	Other	157	t09_2_p2_2_mono.wav	le f'nouil		yes	yes	match	r	yes	820.0	1055	235	1	no
1	A1	2	18	21	male	right	Other	158	n82_0_p2_1_mono.wav	le sermite	NA	no	no	filler	NA	no	876.0	1993	1117	1	yes
1	A1	2	18	21	male	right	Other	159	n10_2_p3_1_mono.wav	le r'got	NA	no	no	filler	r	yes	787.0	2007	1220	1	yes
1	A1	2	18	21	male	right	Other	160	n08_2_p2_1_mono.wav	la s'cotte	NA	no	no	filler	r	yes	817.0	1741	924	1	yes
1	A1	2	18	21	male	right	Other	161	n04_2_p4_1_mono.wav	la r'noise	NA	no	no	filler	r	yes	882.0	2108	1226	1	yes
