"session"	"list"	"group"	"subject"	"age"	"sex"	"hand"	"assist"	"trial"	"file"	"stimulus"	"is_target"	"is_word"	"targettype"	"red"	"is_schwa"	"duration"	"rt"	"rt_end"	"response"	"correctness"	"oexperiment"	"spelling"	"subject_oexp"
1	"A1"	2	10	20	"male"	"right"	"Ilse"	1	"f66_2_p2_1_mono.wav"	"le d'main"	"no"	"yes"	"filler"	"r"	"yes"	671	2195	1524	5	"yes"	"1"	"-spelling"	"10_1"
1	"A1"	2	10	20	"male"	"right"	"Ilse"	2	"n75_0_p2_1_mono.wav"	"le fège"	"no"	"no"	"filler"	NA	"no"	882	1975	1093	5	"no"	"1"	"-spelling"	"10_1"
1	"A1"	2	10	20	"male"	"right"	"Ilse"	3	"f34_0_p1_1_mono.wav"	"le silence"	"no"	"yes"	"filler"	NA	"no"	931	3565	2634	5	"yes"	"1"	"-spelling"	"10_1"
1	"A1"	2	10	20	"male"	"right"	"Ilse"	4	"f72_1_p1_1_mono.wav"	"la revanche"	"no"	"yes"	"filler"	"u"	"yes"	900	3139	2239	1	"no"	"1"	"-spelling"	"10_1"
1	"A1"	2	10	20	"male"	"right"	"Ilse"	5	"n29_0_p2_1_mono.wav"	"le choint"	"no"	"no"	"filler"	NA	"no"	721	2352	1631	5	"no"	"1"	"-spelling"	"10_1"
1	"A1"	2	10	20	"male"	"right"	"Ilse"	6	"f67_1_p3_1_mono.wav"	"le refuge"	"no"	"yes"	"filler"	"u"	"yes"	888	2301	1413	5	"yes"	"1"	"-spelling"	"10_1"
1	"A1"	2	10	20	"male"	"right"	"Ilse"	7	"f32_0_p4_1_mono.wav"	"le moment"	"no"	"yes"	"filler"	NA	"no"	534	3226	2692	1	"no"	"1"	"-spelling"	"10_1"
1	"A1"	2	10	20	"male"	"right"	"Ilse"	8	"n73_0_p1_1_mono.wav"	"le buveau"	"no"	"no"	"filler"	NA	"no"	615	2210	1595	1	"yes"	"1"	"-spelling"	"10_1"
1	"A1"	2	10	20	"male"	"right"	"Ilse"	9	"n03_1_p1_1_mono.wav"	"la mequisse"	"no"	"no"	"filler"	"u"	"yes"	908	4021	3113	1	"yes"	"1"	"-spelling"	"10_1"
1	"A1"	2	10	20	"male"	"right"	"Ilse"	10	"f50_0_p2_1_mono.wav"	"le café"	"no"	"yes"	"filler"	NA	"no"	827	2402	1575	1	"no"	"1"	"-spelling"	"10_1"
1	"A1"	2	10	20	"male"	"right"	"Ilse"	11	"f30_0_p4_1_mono.wav"	"le garçon"	"no"	"yes"	"filler"	NA	"no"	615	960	345	5	"yes"	"1"	"-spelling"	"10_1"
1	"A1"	2	10	20	"male"	"right"	"Ilse"	12	"n58_0_p1_1_mono.wav"	"la siture"	"no"	"no"	"filler"	NA	"no"	885	3416	2531	1	"yes"	"1"	"-spelling"	"10_1"
1	"A1"	2	10	20	"male"	"right"	"Ilse"	13	"n22_2_p3_1_mono.wav"	"le r'logue"	"no"	"no"	"filler"	"r"	"yes"	818	2523	1705	5	"no"	"1"	"-spelling"	"10_1"
1	"A1"	2	10	20	"male"	"right"	"Ilse"	14	"n74_0_p1_1_mono.wav"	"le camont"	"no"	"no"	"filler"	NA	"no"	665	2689	2024	5	"no"	"1"	"-spelling"	"10_1"
1	"A1"	2	10	20	"male"	"right"	"Ilse"	15	"f61_1_p3_1_mono.wav"	"le semi"	"no"	"yes"	"filler"	"u"	"yes"	716	2588	1872	1	"no"	"1"	"-spelling"	"10_1"
1	"A1"	2	10	20	"male"	"right"	"Ilse"	16	"n31_0_p1_1_mono.wav"	"l'annue"	"no"	"no"	"filler"	NA	"no"	692	1747	1055	5	"no"	"1"	"-spelling"	"10_1"
1	"A1"	2	10	20	"male"	"right"	"Ilse"	17	"n01_2_p1_1_mono.wav"	"la b'rasse"	"no"	"no"	"filler"	"r"	"yes"	889	2512	1623	5	"no"	"1"	"-spelling"	"10_1"
1	"A1"	2	10	20	"male"	"right"	"Ilse"	18	"f62_1_p1_1_mono.wav"	"le ressort"	"no"	"yes"	"filler"	"u"	"yes"	881	2898	2017	1	"no"	"1"	"-spelling"	"10_1"
1	"A1"	2	10	20	"male"	"right"	"Ilse"	19	"n96_1_p2_1_mono.wav"	"la refare"	"no"	"no"	"filler"	"u"	"yes"	986	2173	1187	1	"yes"	"1"	"-spelling"	"10_1"
1	"A1"	2	10	20	"male"	"right"	"Ilse"	20	"n70_0_p1_1_mono.wav"	"la nale"	"no"	"no"	"filler"	NA	"no"	727	3567	2840	5	"no"	"1"	"-spelling"	"10_1"
1	"A1"	2	10	20	"male"	"right"	"Ilse"	21	"f04_0_p2_1_mono.wav"	"la soeur"	"no"	"yes"	"filler"	NA	"no"	790	1492	702	5	"yes"	"1"	"-spelling"	"10_1"
1	"A1"	2	10	20	"male"	"right"	"Ilse"	22	"n89_1_p3_1_mono.wav"	"le rebil"	"no"	"no"	"filler"	"u"	"yes"	912	2155	1243	5	"no"	"1"	"-spelling"	"10_1"
1	"A1"	2	10	20	"male"	"right"	"Ilse"	23	"n60_0_p1_1_mono.wav"	"le tinge"	"no"	"no"	"filler"	NA	"no"	954	2552	1598	5	"no"	"1"	"-spelling"	"10_1"
1	"A1"	2	10	20	"male"	"right"	"Ilse"	24	"t22_1_p4_2_mono.wav"	"le renard"	"yes"	"yes"	"mismatch"	"u"	"yes"	935	1518	583	5	"yes"	"1"	"-spelling"	"10_1"
1	"A1"	2	10	20	"male"	"right"	"Ilse"	25	"n91_2_p3_1_mono.wav"	"le r'lide"	"no"	"no"	"filler"	"r"	"yes"	861	1797	936	1	"yes"	"1"	"-spelling"	"10_1"
1	"A1"	2	10	20	"male"	"right"	"Ilse"	26	"f71_2_p1_1_mono.wav"	"le r'cord"	"no"	"yes"	"filler"	"r"	"yes"	866	3434	2568	5	"yes"	"1"	"-spelling"	"10_1"
1	"A1"	2	10	20	"male"	"right"	"Ilse"	27	"f03_0_p4_1_mono.wav"	"la nuit"	"no"	"yes"	"filler"	NA	"no"	735	1109	374	5	"yes"	"1"	"-spelling"	"10_1"
1	"A1"	2	10	20	"male"	"right"	"Ilse"	28	"n05_1_p4_1_mono.wav"	"le gegnoble"	"no"	"no"	"filler"	"u"	"yes"	987	1913	926	1	"yes"	"1"	"-spelling"	"10_1"
1	"A1"	2	10	20	"male"	"right"	"Ilse"	29	"n49_0_p2_1_mono.wav"	"la questier"	"no"	"no"	"filler"	NA	"no"	963	1696	733	1	"yes"	"1"	"-spelling"	"10_1"
1	"A1"	2	10	20	"male"	"right"	"Ilse"	30	"n27_0_p2_1_mono.wav"	"la tuit"	"no"	"no"	"filler"	NA	"no"	916	3432	2516	1	"yes"	"1"	"-spelling"	"10_1"
1	"A1"	2	10	20	"male"	"right"	"Ilse"	31	"n39_0_p2_1_mono.wav"	"le grat"	"no"	"no"	"filler"	NA	"no"	621	2486	1865	1	"yes"	"1"	"-spelling"	"10_1"
1	"A1"	2	10	20	"male"	"right"	"Ilse"	32	"f19_0_p2_1_mono.wav"	"l'idée"	"no"	"yes"	"filler"	NA	"no"	796	1889	1093	1	"no"	"1"	"-spelling"	"10_1"
1	"A1"	2	10	20	"male"	"right"	"Ilse"	33	"n02_2_p2_1_mono.wav"	"la l'druche"	"no"	"no"	"filler"	"r"	"yes"	869	2366	1497	1	"yes"	"1"	"-spelling"	"10_1"
1	"A1"	2	10	20	"male"	"right"	"Ilse"	34	"f41_0_p4_1_mono.wav"	"la carte"	"no"	"yes"	"filler"	NA	"no"	836	1172	336	5	"yes"	"1"	"-spelling"	"10_1"
1	"A1"	2	10	20	"male"	"right"	"Ilse"	35	"f47_0_p2_1_mono.wav"	"la route"	"no"	"yes"	"filler"	NA	"no"	797	1567	770	5	"yes"	"1"	"-spelling"	"10_1"
1	"A1"	2	10	20	"male"	"right"	"Ilse"	36	"n09_2_p1_1_mono.wav"	"le f'mmeil"	"no"	"no"	"filler"	"r"	"yes"	927	1751	824	5	"no"	"1"	"-spelling"	"10_1"
1	"A1"	2	10	20	"male"	"right"	"Ilse"	37	"t11_2_p3_2_mono.wav"	"le r'mous"	"yes"	"yes"	"match"	"r"	"yes"	562	2003	1441	5	"yes"	"1"	"-spelling"	"10_1"
1	"A1"	2	10	20	"male"	"right"	"Ilse"	38	"n90_2_p2_1_mono.wav"	"le d'sseau"	"no"	"no"	"filler"	"r"	"yes"	683	4359	3676	1	"yes"	"1"	"-spelling"	"10_1"
1	"A1"	2	10	20	"male"	"right"	"Ilse"	39	"f01_0_p4_1_mono.wav"	"l'oncle"	"no"	"yes"	"filler"	NA	"no"	764	3622	2858	5	"yes"	"1"	"-spelling"	"10_1"
1	"A1"	2	10	20	"male"	"right"	"Ilse"	40	"f44_0_p1_1_mono.wav"	"la lettre"	"no"	"yes"	"filler"	NA	"no"	839	3334	2495	5	"yes"	"1"	"-spelling"	"10_1"
1	"A1"	2	10	20	"male"	"right"	"Ilse"	41	"n33_0_p2_1_mono.wav"	"la juisse"	"no"	"no"	"filler"	NA	"no"	912	2557	1645	1	"yes"	"1"	"-spelling"	"10_1"
1	"A1"	2	10	20	"male"	"right"	"Ilse"	42	"n44_0_p1_1_mono.wav"	"la fanouille"	"no"	"no"	"filler"	NA	"no"	852	3965	3113	1	"yes"	"1"	"-spelling"	"10_1"
1	"A1"	2	10	20	"male"	"right"	"Ilse"	43	"n65_0_p4_1_mono.wav"	"la murte"	"no"	"no"	"filler"	NA	"no"	894	2667	1773	5	"no"	"1"	"-spelling"	"10_1"
1	"A1"	2	10	20	"male"	"right"	"Ilse"	44	"n62_0_p4_1_mono.wav"	"l'hosor"	"no"	"no"	"filler"	NA	"no"	774	1931	1157	5	"no"	"1"	"-spelling"	"10_1"
1	"A1"	2	10	20	"male"	"right"	"Ilse"	45	"f70_1_p1_1_mono.wav"	"le semestre"	"no"	"yes"	"filler"	"u"	"yes"	947	2181	1234	5	"yes"	"1"	"-spelling"	"10_1"
1	"A1"	2	10	20	"male"	"right"	"Ilse"	46	"t21_2_p3_2_mono.wav"	"le r'cul"	"yes"	"yes"	"match"	"r"	"yes"	840	3155	2315	5	"yes"	"1"	"-spelling"	"10_1"
1	"A1"	2	10	20	"male"	"right"	"Ilse"	47	"n69_0_p1_1_mono.wav"	"la madaine"	"no"	"no"	"filler"	NA	"no"	885	4760	3875	1	"yes"	"1"	"-spelling"	"10_1"
1	"A1"	2	10	20	"male"	"right"	"Ilse"	48	"f55_0_p4_1_mono.wav"	"le livre"	"no"	"yes"	"filler"	NA	"no"	872	2428	1556	1	"no"	"1"	"-spelling"	"10_1"
1	"A1"	2	10	20	"male"	"right"	"Ilse"	49	"f27_0_p1_1_mono.wav"	"le cadeau"	"no"	"yes"	"filler"	NA	"no"	604	1835	1231	5	"yes"	"1"	"-spelling"	"10_1"
1	"A1"	2	10	20	"male"	"right"	"Ilse"	50	"n50_0_p2_1_mono.wav"	"la rille"	"no"	"no"	"filler"	NA	"no"	802	2999	2197	1	"yes"	"1"	"-spelling"	"10_1"
1	"A1"	2	10	20	"male"	"right"	"Ilse"	51	"f45_0_p2_1_mono.wav"	"la madame"	"no"	"yes"	"filler"	NA	"no"	767	1483	716	5	"yes"	"1"	"-spelling"	"10_1"
1	"A1"	2	10	20	"male"	"right"	"Ilse"	52	"n20_1_p1_1_mono.wav"	"le mejet"	"no"	"no"	"filler"	"u"	"yes"	793	2940	2147	1	"yes"	"1"	"-spelling"	"10_1"
1	"A1"	2	10	20	"male"	"right"	"Ilse"	53	"n35_0_p3_1_mono.wav"	"le missien"	"no"	"no"	"filler"	NA	"no"	721	4416	3695	1	"yes"	"1"	"-spelling"	"10_1"
1	"A1"	2	10	20	"male"	"right"	"Ilse"	54	"n19_1_p3_1_mono.wav"	"le chedel"	"no"	"no"	"filler"	"u"	"yes"	870	1929	1059	1	"yes"	"1"	"-spelling"	"10_1"
1	"A1"	2	10	20	"male"	"right"	"Ilse"	55	"n63_0_p1_1_mono.wav"	"la histienne"	"no"	"no"	"filler"	NA	"no"	786	5250	4464	5	"no"	"1"	"-spelling"	"10_1"
1	"A1"	2	10	20	"male"	"right"	"Ilse"	56	"f18_0_p3_1_mono.wav"	"l'enfant"	"no"	"yes"	"filler"	NA	"no"	513	1903	1390	5	"yes"	"1"	"-spelling"	"10_1"
1	"A1"	2	10	20	"male"	"right"	"Ilse"	57	"n64_0_p3_1_mono.wav"	"l'oune"	"no"	"no"	"filler"	NA	"no"	601	3018	2417	5	"no"	"1"	"-spelling"	"10_1"
1	"A1"	2	10	20	"male"	"right"	"Ilse"	58	"n52_0_p2_1_mono.wav"	"le drère"	"no"	"no"	"filler"	NA	"no"	819	3219	2400	1	"yes"	"1"	"-spelling"	"10_1"
1	"A1"	2	10	20	"male"	"right"	"Ilse"	59	"n11_1_p4_1_mono.wav"	"le refant"	"no"	"no"	"filler"	"u"	"yes"	700	4237	3537	1	"yes"	"1"	"-spelling"	"10_1"
1	"A1"	2	10	20	"male"	"right"	"Ilse"	60	"n61_0_p3_1_mono.wav"	"l'apure"	"no"	"no"	"filler"	NA	"no"	885	2100	1215	5	"no"	"1"	"-spelling"	"10_1"
1	"A1"	2	10	20	"male"	"right"	"Ilse"	61	"t24_1_p2_2_mono.wav"	"le faisan"	"yes"	"yes"	"mismatch"	"u"	"yes"	686	2099	1413	5	"yes"	"1"	"-spelling"	"10_1"
1	"A1"	2	10	20	"male"	"right"	"Ilse"	62	"f57_0_p2_1_mono.wav"	"le prix"	"no"	"yes"	"filler"	NA	"no"	792	1525	733	5	"yes"	"1"	"-spelling"	"10_1"
1	"A1"	2	10	20	"male"	"right"	"Ilse"	63	"f53_0_p2_1_mono.wav"	"le groupe"	"no"	"yes"	"filler"	NA	"no"	744	5316	4572	1	"no"	"1"	"-spelling"	"10_1"
1	"A1"	2	10	20	"male"	"right"	"Ilse"	64	"n86_1_p3_1_mono.wav"	"le repire"	"no"	"no"	"filler"	"u"	"yes"	965	3691	2726	1	"yes"	"1"	"-spelling"	"10_1"
1	"A1"	2	10	20	"male"	"right"	"Ilse"	65	"n76_0_p4_1_mono.wav"	"le tenre"	"no"	"no"	"filler"	NA	"no"	832	1543	711	5	"no"	"1"	"-spelling"	"10_1"
1	"A1"	2	10	20	"male"	"right"	"Ilse"	66	"t15_2_p2_2_mono.wav"	"la p'louse"	"yes"	"yes"	"match"	"r"	"yes"	889	1276	387	5	"yes"	"1"	"-spelling"	"10_1"
1	"A1"	2	10	20	"male"	"right"	"Ilse"	67	"n17_2_p4_1_mono.wav"	"la s'gence"	"no"	"no"	"filler"	"r"	"yes"	1084	5222	4138	1	"yes"	"1"	"-spelling"	"10_1"
1	"A1"	2	10	20	"male"	"right"	"Ilse"	68	"t10_1_p1_2_mono.wav"	"le rebond"	"yes"	"yes"	"mismatch"	"u"	"yes"	640	2667	2027	5	"yes"	"1"	"-spelling"	"10_1"
1	"A1"	2	10	20	"male"	"right"	"Ilse"	69	"n34_0_p3_1_mono.wav"	"le teau"	"no"	"no"	"filler"	NA	"no"	473	1698	1225	5	"no"	"1"	"-spelling"	"10_1"
1	"A1"	2	10	20	"male"	"right"	"Ilse"	70	"f40_0_p1_1_mono.wav"	"l'homme"	"no"	"yes"	"filler"	NA	"no"	638	3339	2701	1	"no"	"1"	"-spelling"	"10_1"
1	"A1"	2	10	20	"male"	"right"	"Ilse"	71	"f58_0_p1_1_mono.wav"	"le service"	"no"	"yes"	"filler"	NA	"no"	935	2139	1204	5	"yes"	"1"	"-spelling"	"10_1"
1	"A1"	2	10	20	"male"	"right"	"Ilse"	72	"n13_1_p2_1_mono.wav"	"le seblème"	"no"	"no"	"filler"	"u"	"yes"	846	1921	1075	5	"no"	"1"	"-spelling"	"10_1"
1	"A1"	2	10	20	"male"	"right"	"Ilse"	73	"n94_1_p2_1_mono.wav"	"le sequestre"	"no"	"no"	"filler"	"u"	"yes"	1007	2067	1060	1	"yes"	"1"	"-spelling"	"10_1"
1	"A1"	2	10	20	"male"	"right"	"Ilse"	74	"n57_0_p1_1_mono.wav"	"le ratime"	"no"	"no"	"filler"	NA	"no"	859	2941	2082	1	"yes"	"1"	"-spelling"	"10_1"
1	"A1"	2	10	20	"male"	"right"	"Ilse"	75	"n77_0_p4_1_mono.wav"	"le bruc"	"no"	"no"	"filler"	NA	"no"	880	4050	3170	1	"yes"	"1"	"-spelling"	"10_1"
1	"A1"	2	10	20	"male"	"right"	"Ilse"	76	"f24_0_p2_1_mono.wav"	"la maison"	"no"	"yes"	"filler"	NA	"no"	625	1385	760	5	"yes"	"1"	"-spelling"	"10_1"
1	"A1"	2	10	20	"male"	"right"	"Ilse"	77	"n45_0_p3_1_mono.wav"	"la horgune"	"no"	"no"	"filler"	NA	"no"	731	1626	895	5	"no"	"1"	"-spelling"	"10_1"
1	"A1"	2	10	20	"male"	"right"	"Ilse"	78	"t04_1_p1_2_mono.wav"	"la reliure"	"yes"	"yes"	"mismatch"	"u"	"yes"	1026	4662	3636	5	"yes"	"1"	"-spelling"	"10_1"
1	"A1"	2	10	20	"male"	"right"	"Ilse"	79	"f31_0_p3_1_mono.wav"	"le jour"	"no"	"yes"	"filler"	NA	"no"	878	1967	1089	5	"yes"	"1"	"-spelling"	"10_1"
1	"A1"	2	10	20	"male"	"right"	"Ilse"	80	"n24_2_p4_1_mono.wav"	"le f'quon"	"no"	"no"	"filler"	"r"	"yes"	660	2592	1932	1	"yes"	"1"	"-spelling"	"10_1"
1	"A1"	2	10	20	"male"	"right"	"Ilse"	81	"n40_0_p3_1_mono.wav"	"l'équise"	"no"	"no"	"filler"	NA	"no"	872	1570	698	5	"no"	"1"	"-spelling"	"10_1"
1	"A1"	2	10	20	"male"	"right"	"Ilse"	82	"n59_0_p4_1_mono.wav"	"le solti"	"no"	"no"	"filler"	NA	"no"	856	3010	2154	1	"yes"	"1"	"-spelling"	"10_1"
1	"A1"	2	10	20	"male"	"right"	"Ilse"	83	"t16_1_p1_2_mono.wav"	"la peluche"	"yes"	"yes"	"mismatch"	"u"	"yes"	846	2242	1396	1	"no"	"1"	"-spelling"	"10_1"
1	"A1"	2	10	20	"male"	"right"	"Ilse"	84	"f13_0_p4_1_mono.wav"	"le papier"	"no"	"yes"	"filler"	NA	"no"	977	1760	783	5	"yes"	"1"	"-spelling"	"10_1"
1	"A1"	2	10	20	"male"	"right"	"Ilse"	85	"f22_0_p3_1_mono.wav"	"la journée"	"no"	"yes"	"filler"	NA	"no"	793	3415	2622	5	"yes"	"1"	"-spelling"	"10_1"
1	"A1"	2	10	20	"male"	"right"	"Ilse"	86	"f59_0_p2_1_mono.wav"	"le soleil"	"no"	"yes"	"filler"	NA	"no"	871	1097	226	5	"yes"	"1"	"-spelling"	"10_1"
1	"A1"	2	10	20	"male"	"right"	"Ilse"	87	"f42_0_p1_1_mono.wav"	"la chance"	"no"	"yes"	"filler"	NA	"no"	807	1104	297	5	"yes"	"1"	"-spelling"	"10_1"
1	"A1"	2	10	20	"male"	"right"	"Ilse"	88	"n80_0_p2_1_mono.wav"	"le péhut"	"no"	"no"	"filler"	NA	"no"	988	1553	565	1	"yes"	"1"	"-spelling"	"10_1"
1	"A1"	2	10	20	"male"	"right"	"Ilse"	89	"n67_0_p2_1_mono.wav"	"la janne"	"no"	"no"	"filler"	NA	"no"	765	2129	1364	1	"yes"	"1"	"-spelling"	"10_1"
1	"A1"	2	10	20	"male"	"right"	"Ilse"	90	"f54_0_p1_1_mono.wav"	"le journal"	"no"	"yes"	"filler"	NA	"no"	910	1769	859	5	"yes"	"1"	"-spelling"	"10_1"
1	"A1"	2	10	20	"male"	"right"	"Ilse"	91	"f02_0_p2_1_mono.wav"	"la main"	"no"	"yes"	"filler"	NA	"no"	540	1742	1202	5	"yes"	"1"	"-spelling"	"10_1"
1	"A1"	2	10	20	"male"	"right"	"Ilse"	92	"t14_1_p2_2_mono.wav"	"la chenille"	"yes"	"yes"	"mismatch"	"u"	"yes"	938	4782	3844	1	"no"	"1"	"-spelling"	"10_1"
1	"A1"	2	10	20	"male"	"right"	"Ilse"	93	"n42_0_p1_1_mono.wav"	"l'endos"	"no"	"no"	"filler"	NA	"no"	588	1575	987	1	"yes"	"1"	"-spelling"	"10_1"
1	"A1"	2	10	20	"male"	"right"	"Ilse"	94	"f29_0_p3_1_mono.wav"	"le fromage"	"no"	"yes"	"filler"	NA	"no"	818	1325	507	5	"yes"	"1"	"-spelling"	"10_1"
1	"A1"	2	10	20	"male"	"right"	"Ilse"	95	"n38_0_p2_1_mono.wav"	"le suir"	"no"	"no"	"filler"	NA	"no"	855	4046	3191	1	"yes"	"1"	"-spelling"	"10_1"
1	"A1"	2	10	20	"male"	"right"	"Ilse"	96	"f65_2_p1_1_mono.wav"	"le r'paire"	"no"	"yes"	"filler"	"r"	"yes"	914	1754	840	5	"yes"	"1"	"-spelling"	"10_1"
1	"A1"	2	10	20	"male"	"right"	"Ilse"	97	"f56_0_p3_1_mono.wav"	"le pays"	"no"	"yes"	"filler"	NA	"no"	738	1874	1136	1	"no"	"1"	"-spelling"	"10_1"
1	"A1"	2	10	20	"male"	"right"	"Ilse"	98	"n06_1_p2_1_mono.wav"	"le retal"	"no"	"no"	"filler"	"u"	"yes"	907	1726	819	5	"no"	"1"	"-spelling"	"10_1"
1	"A1"	2	10	20	"male"	"right"	"Ilse"	99	"f21_0_p1_1_mono.wav"	"la horloge"	"no"	"yes"	"filler"	NA	"no"	691	3526	2835	1	"no"	"1"	"-spelling"	"10_1"
1	"A1"	2	10	20	"male"	"right"	"Ilse"	100	"t23_2_p2_2_mono.wav"	"la s'cousse"	"yes"	"yes"	"match"	"r"	"yes"	865	1198	333	5	"yes"	"1"	"-spelling"	"10_1"
1	"A1"	2	10	20	"male"	"right"	"Ilse"	101	"f46_0_p1_1_mono.wav"	"la part"	"no"	"yes"	"filler"	NA	"no"	851	1215	364	5	"yes"	"1"	"-spelling"	"10_1"
1	"A1"	2	10	20	"male"	"right"	"Ilse"	102	"n87_1_p3_1_mono.wav"	"le chenache"	"no"	"no"	"filler"	"u"	"yes"	881	4464	3583	1	"yes"	"1"	"-spelling"	"10_1"
1	"A1"	2	10	20	"male"	"right"	"Ilse"	103	"n43_0_p2_1_mono.wav"	"l'ivée"	"no"	"no"	"filler"	NA	"no"	804	3882	3078	1	"yes"	"1"	"-spelling"	"10_1"
1	"A1"	2	10	20	"male"	"right"	"Ilse"	104	"n71_0_p3_1_mono.wav"	"la foite"	"no"	"no"	"filler"	NA	"no"	994	1893	899	5	"no"	"1"	"-spelling"	"10_1"
1	"A1"	2	10	20	"male"	"right"	"Ilse"	105	"n36_0_p1_1_mono.wav"	"le linde"	"no"	"no"	"filler"	NA	"no"	848	2650	1802	1	"yes"	"1"	"-spelling"	"10_1"
1	"A1"	2	10	20	"male"	"right"	"Ilse"	106	"n78_0_p1_1_mono.wav"	"le jourlingue"	"no"	"no"	"filler"	NA	"no"	993	3544	2551	1	"yes"	"1"	"-spelling"	"10_1"
1	"A1"	2	10	20	"male"	"right"	"Ilse"	107	"f23_0_p1_1_mono.wav"	"la mère"	"no"	"yes"	"filler"	NA	"no"	902	1213	311	5	"yes"	"1"	"-spelling"	"10_1"
1	"A1"	2	10	20	"male"	"right"	"Ilse"	108	"f09_0_p2_1_mono.wav"	"la pièce"	"no"	"yes"	"filler"	NA	"no"	830	2018	1188	5	"yes"	"1"	"-spelling"	"10_1"
1	"A1"	2	10	20	"male"	"right"	"Ilse"	109	"f36_0_p1_1_mono.wav"	"le type"	"no"	"yes"	"filler"	NA	"no"	965	6271	5306	1	"no"	"1"	"-spelling"	"10_1"
1	"A1"	2	10	20	"male"	"right"	"Ilse"	110	"f38_0_p3_1_mono.wav"	"l'hôtel"	"no"	"yes"	"filler"	NA	"no"	721	1049	328	5	"yes"	"1"	"-spelling"	"10_1"
1	"A1"	2	10	20	"male"	"right"	"Ilse"	111	"f20_0_p3_1_mono.wav"	"la famille"	"no"	"yes"	"filler"	NA	"no"	856	4875	4019	1	"no"	"1"	"-spelling"	"10_1"
1	"A1"	2	10	20	"male"	"right"	"Ilse"	112	"n93_2_p3_1_mono.wav"	"le r'vercle"	"no"	"no"	"filler"	"r"	"yes"	806	4387	3581	1	"yes"	"1"	"-spelling"	"10_1"
1	"A1"	2	10	20	"male"	"right"	"Ilse"	113	"f26_0_p1_1_mono.wav"	"la ville"	"no"	"yes"	"filler"	NA	"no"	741	2398	1657	1	"no"	"1"	"-spelling"	"10_1"
1	"A1"	2	10	20	"male"	"right"	"Ilse"	114	"n18_1_p3_1_mono.wav"	"le reclin"	"no"	"no"	"filler"	"u"	"yes"	888	4374	3486	1	"yes"	"1"	"-spelling"	"10_1"
1	"A1"	2	10	20	"male"	"right"	"Ilse"	115	"n32_0_p1_1_mono.wav"	"l'heule"	"no"	"no"	"filler"	NA	"no"	678	3722	3044	1	"yes"	"1"	"-spelling"	"10_1"
1	"A1"	2	10	20	"male"	"right"	"Ilse"	116	"t01_2_p4_2_mono.wav"	"la b'lette"	"yes"	"yes"	"match"	"r"	"yes"	879	1630	751	5	"yes"	"1"	"-spelling"	"10_1"
1	"A1"	2	10	20	"male"	"right"	"Ilse"	117	"n23_2_p1_1_mono.wav"	"la s'pave"	"no"	"no"	"filler"	"r"	"yes"	945	4538	3593	1	"yes"	"1"	"-spelling"	"10_1"
1	"A1"	2	10	20	"male"	"right"	"Ilse"	118	"t02_1_p1_2_mono.wav"	"la levrette"	"yes"	"yes"	"mismatch"	"u"	"yes"	856	3871	3015	5	"yes"	"1"	"-spelling"	"10_1"
1	"A1"	2	10	20	"male"	"right"	"Ilse"	119	"n30_0_p2_1_mono.wav"	"le pien"	"no"	"no"	"filler"	NA	"no"	691	3439	2748	5	"no"	"1"	"-spelling"	"10_1"
1	"A1"	2	10	20	"male"	"right"	"Ilse"	120	"f39_0_p1_1_mono.wav"	"l'histoire"	"no"	"yes"	"filler"	NA	"no"	949	1338	389	5	"yes"	"1"	"-spelling"	"10_1"
1	"A1"	2	10	20	"male"	"right"	"Ilse"	121	"t08_1_p3_2_mono.wav"	"la semelle"	"yes"	"yes"	"mismatch"	"u"	"yes"	916	3601	2685	1	"no"	"1"	"-spelling"	"10_1"
1	"A1"	2	10	20	"male"	"right"	"Ilse"	122	"f63_2_p4_1_mono.wav"	"le ch'val"	"no"	"yes"	"filler"	"r"	"yes"	779	2045	1266	1	"no"	"1"	"-spelling"	"10_1"
1	"A1"	2	10	20	"male"	"right"	"Ilse"	123	"n16_2_p4_1_mono.wav"	"la p'doche"	"no"	"no"	"filler"	"r"	"yes"	875	1613	738	5	"no"	"1"	"-spelling"	"10_1"
1	"A1"	2	10	20	"male"	"right"	"Ilse"	124	"t07_2_p1_2_mono.wav"	"la b'daine"	"yes"	"yes"	"match"	"r"	"yes"	756	1898	1142	5	"yes"	"1"	"-spelling"	"10_1"
1	"A1"	2	10	20	"male"	"right"	"Ilse"	125	"f17_0_p4_1_mono.wav"	"l'accord"	"no"	"yes"	"filler"	NA	"no"	866	1137	271	5	"yes"	"1"	"-spelling"	"10_1"
1	"A1"	2	10	20	"male"	"right"	"Ilse"	126	"t13_2_p3_2_mono.wav"	"le s'vrage"	"yes"	"yes"	"match"	"r"	"yes"	998	4201	3203	5	"yes"	"1"	"-spelling"	"10_1"
1	"A1"	2	10	20	"male"	"right"	"Ilse"	127	"f10_0_p2_1_mono.wav"	"le chat"	"no"	"yes"	"filler"	NA	"no"	582	2701	2119	1	"no"	"1"	"-spelling"	"10_1"
1	"A1"	2	10	20	"male"	"right"	"Ilse"	128	"n48_0_p2_1_mono.wav"	"la mainou"	"no"	"no"	"filler"	NA	"no"	740	2498	1758	1	"yes"	"1"	"-spelling"	"10_1"
1	"A1"	2	10	20	"male"	"right"	"Ilse"	129	"f11_0_p2_1_mono.wav"	"le milieu"	"no"	"yes"	"filler"	NA	"no"	753	1311	558	5	"yes"	"1"	"-spelling"	"10_1"
1	"A1"	2	10	20	"male"	"right"	"Ilse"	130	"n46_0_p1_1_mono.wav"	"la jourcie"	"no"	"no"	"filler"	NA	"no"	930	4317	3387	1	"yes"	"1"	"-spelling"	"10_1"
1	"A1"	2	10	20	"male"	"right"	"Ilse"	131	"f37_0_p2_1_mono.wav"	"l'amour"	"no"	"yes"	"filler"	NA	"no"	839	1266	427	5	"yes"	"1"	"-spelling"	"10_1"
1	"A1"	2	10	20	"male"	"right"	"Ilse"	132	"n53_0_p1_1_mono.wav"	"le frolège"	"no"	"no"	"filler"	NA	"no"	855	2811	1956	5	"no"	"1"	"-spelling"	"10_1"
1	"A1"	2	10	20	"male"	"right"	"Ilse"	133	"n88_1_p2_1_mono.wav"	"le messin"	"no"	"no"	"filler"	"u"	"yes"	704	6102	5398	1	"yes"	"1"	"-spelling"	"10_1"
1	"A1"	2	10	20	"male"	"right"	"Ilse"	134	"n47_0_p4_1_mono.wav"	"la nure"	"no"	"no"	"filler"	NA	"no"	829	2509	1680	1	"yes"	"1"	"-spelling"	"10_1"
1	"A1"	2	10	20	"male"	"right"	"Ilse"	135	"n56_0_p3_1_mono.wav"	"le mossu"	"no"	"no"	"filler"	NA	"no"	820	3968	3148	1	"yes"	"1"	"-spelling"	"10_1"
1	"A1"	2	10	20	"male"	"right"	"Ilse"	136	"t03_2_p2_2_mono.wav"	"la m'notte"	"yes"	"yes"	"match"	"r"	"yes"	889	1682	793	5	"yes"	"1"	"-spelling"	"10_1"
1	"A1"	2	10	20	"male"	"right"	"Ilse"	137	"n72_0_p3_1_mono.wav"	"la teune"	"no"	"no"	"filler"	NA	"no"	893	4757	3864	1	"yes"	"1"	"-spelling"	"10_1"
1	"A1"	2	10	20	"male"	"right"	"Ilse"	138	"f35_0_p4_1_mono.wav"	"le soldat"	"no"	"yes"	"filler"	NA	"no"	677	2459	1782	5	"yes"	"1"	"-spelling"	"10_1"
1	"A1"	2	10	20	"male"	"right"	"Ilse"	139	"t06_1_p1_2_mono.wav"	"le recel"	"yes"	"yes"	"mismatch"	"u"	"yes"	938	5649	4711	1	"no"	"1"	"-spelling"	"10_1"
1	"A1"	2	10	20	"male"	"right"	"Ilse"	140	"f25_0_p3_1_mono.wav"	"la question"	"no"	"yes"	"filler"	NA	"no"	728	2566	1838	5	"yes"	"1"	"-spelling"	"10_1"
1	"A1"	2	10	20	"male"	"right"	"Ilse"	141	"n14_1_p1_1_mono.wav"	"la chemaille"	"no"	"no"	"filler"	"u"	"yes"	797	3209	2412	5	"no"	"1"	"-spelling"	"10_1"
1	"A1"	2	10	20	"male"	"right"	"Ilse"	142	"n79_0_p4_1_mono.wav"	"le tavre"	"no"	"no"	"filler"	NA	"no"	855	2085	1230	1	"yes"	"1"	"-spelling"	"10_1"
1	"A1"	2	10	20	"male"	"right"	"Ilse"	143	"f08_0_p4_1_mono.wav"	"l'heure"	"no"	"yes"	"filler"	NA	"no"	735	1168	433	5	"yes"	"1"	"-spelling"	"10_1"
1	"A1"	2	10	20	"male"	"right"	"Ilse"	144	"f33_0_p4_1_mono.wav"	"le rapport"	"no"	"yes"	"filler"	NA	"no"	872	6385	5513	1	"no"	"1"	"-spelling"	"10_1"
1	"A1"	2	10	20	"male"	"right"	"Ilse"	145	"n12_1_p1_1_mono.wav"	"le rechant"	"no"	"no"	"filler"	"u"	"yes"	686	2578	1892	5	"no"	"1"	"-spelling"	"10_1"
1	"A1"	2	10	20	"male"	"right"	"Ilse"	146	"f05_0_p2_1_mono.wav"	"le chien"	"no"	"yes"	"filler"	NA	"no"	668	1011	343	5	"yes"	"1"	"-spelling"	"10_1"
1	"A1"	2	10	20	"male"	"right"	"Ilse"	147	"f16_0_p4_1_mono.wav"	"l'école"	"no"	"yes"	"filler"	NA	"no"	771	1238	467	5	"yes"	"1"	"-spelling"	"10_1"
1	"A1"	2	10	20	"male"	"right"	"Ilse"	148	"t05_2_p3_2_mono.wav"	"le g'nièvre"	"yes"	"yes"	"match"	"r"	"yes"	943	1768	825	5	"yes"	"1"	"-spelling"	"10_1"
1	"A1"	2	10	20	"male"	"right"	"Ilse"	149	"n25_0_p1_1_mono.wav"	"l'incre"	"no"	"no"	"filler"	NA	"no"	771	4014	3243	1	"yes"	"1"	"-spelling"	"10_1"
1	"A1"	2	10	20	"male"	"right"	"Ilse"	150	"f49_0_p2_1_mono.wav"	"le bureau"	"no"	"yes"	"filler"	NA	"no"	857	1175	318	5	"yes"	"1"	"-spelling"	"10_1"
1	"A1"	2	10	20	"male"	"right"	"Ilse"	151	"n51_0_p4_1_mono.wav"	"le caffant"	"no"	"no"	"filler"	NA	"no"	644	1563	919	5	"no"	"1"	"-spelling"	"10_1"
1	"A1"	2	10	20	"male"	"right"	"Ilse"	152	"n81_0_p1_1_mono.wav"	"le croux"	"no"	"no"	"filler"	NA	"no"	720	1634	914	1	"yes"	"1"	"-spelling"	"10_1"
1	"A1"	2	10	20	"male"	"right"	"Ilse"	153	"n66_0_p2_1_mono.wav"	"la cance"	"no"	"no"	"filler"	NA	"no"	861	4110	3249	1	"yes"	"1"	"-spelling"	"10_1"
1	"A1"	2	10	20	"male"	"right"	"Ilse"	154	"f60_0_p1_1_mono.wav"	"le tour"	"no"	"yes"	"filler"	NA	"no"	839	1447	608	5	"yes"	"1"	"-spelling"	"10_1"
1	"A1"	2	10	20	"male"	"right"	"Ilse"	155	"f12_0_p4_1_mono.wav"	"le monde"	"no"	"yes"	"filler"	NA	"no"	723	1361	638	5	"yes"	"1"	"-spelling"	"10_1"
1	"A1"	2	10	20	"male"	"right"	"Ilse"	156	"f52_0_p2_1_mono.wav"	"le genre"	"no"	"yes"	"filler"	NA	"no"	889	2006	1117	5	"yes"	"1"	"-spelling"	"10_1"
1	"A1"	2	10	20	"male"	"right"	"Ilse"	157	"t09_2_p2_2_mono.wav"	"le f'nouil"	"yes"	"yes"	"match"	"r"	"yes"	820	2131	1311	5	"yes"	"1"	"-spelling"	"10_1"
1	"A1"	2	10	20	"male"	"right"	"Ilse"	158	"n82_0_p2_1_mono.wav"	"le sermite"	"no"	"no"	"filler"	NA	"no"	876	1320	444	1	"yes"	"1"	"-spelling"	"10_1"
1	"A1"	2	10	20	"male"	"right"	"Ilse"	159	"n10_2_p3_1_mono.wav"	"le r'got"	"no"	"no"	"filler"	"r"	"yes"	787	2864	2077	1	"yes"	"1"	"-spelling"	"10_1"
1	"A1"	2	10	20	"male"	"right"	"Ilse"	160	"n08_2_p2_1_mono.wav"	"la s'cotte"	"no"	"no"	"filler"	"r"	"yes"	817	1712	895	5	"no"	"1"	"-spelling"	"10_1"
1	"A1"	2	10	20	"male"	"right"	"Ilse"	161	"n04_2_p4_1_mono.wav"	"la r'noise"	"no"	"no"	"filler"	"r"	"yes"	882	2830	1948	5	"no"	"1"	"-spelling"	"10_1"
1	"A1"	2	10	20	"male"	"right"	"Ilse"	162	"n85_2_p1_1_mono.wav"	"le s'funt"	"no"	"no"	"filler"	"r"	"yes"	778	2885	2107	1	"yes"	"1"	"-spelling"	"10_1"
1	"A1"	2	10	20	"male"	"right"	"Ilse"	163	"n55_0_p3_1_mono.wav"	"le nourd"	"no"	"no"	"filler"	NA	"no"	876	2157	1281	5	"no"	"1"	"-spelling"	"10_1"
1	"A1"	2	10	20	"male"	"right"	"Ilse"	164	"t19_2_p2_2_mono.wav"	"le ch'nil"	"yes"	"yes"	"match"	"r"	"yes"	928	1794	866	5	"yes"	"1"	"-spelling"	"10_1"
1	"A1"	2	10	20	"male"	"right"	"Ilse"	165	"f15_0_p3_1_mono.wav"	"le train"	"no"	"yes"	"filler"	NA	"no"	648	4049	3401	1	"no"	"1"	"-spelling"	"10_1"
1	"A1"	2	10	20	"male"	"right"	"Ilse"	166	"t20_1_p3_2_mono.wav"	"le meneau"	"yes"	"yes"	"mismatch"	"u"	"yes"	629	1443	814	5	"yes"	"1"	"-spelling"	"10_1"
1	"A1"	2	10	20	"male"	"right"	"Ilse"	167	"n07_1_p2_1_mono.wav"	"la bechesse"	"no"	"no"	"filler"	"u"	"yes"	898	2059	1161	5	"no"	"1"	"-spelling"	"10_1"
1	"A1"	2	10	20	"male"	"right"	"Ilse"	168	"f51_0_p3_1_mono.wav"	"le chef"	"no"	"yes"	"filler"	NA	"no"	767	996	229	5	"yes"	"1"	"-spelling"	"10_1"
1	"A1"	2	10	20	"male"	"right"	"Ilse"	169	"f14_0_p2_1_mono.wav"	"le soir"	"no"	"yes"	"filler"	NA	"no"	891	989	98	5	"yes"	"1"	"-spelling"	"10_1"
1	"A1"	2	10	20	"male"	"right"	"Ilse"	170	"n83_0_p4_1_mono.wav"	"le sogueil"	"no"	"no"	"filler"	NA	"no"	915	1873	958	1	"yes"	"1"	"-spelling"	"10_1"
1	"A1"	2	10	20	"male"	"right"	"Ilse"	171	"n28_0_p1_1_mono.wav"	"la veure"	"no"	"no"	"filler"	NA	"no"	834	2964	2130	1	"yes"	"1"	"-spelling"	"10_1"
1	"A1"	2	10	20	"male"	"right"	"Ilse"	172	"f43_0_p4_1_mono.wav"	"la femme"	"no"	"yes"	"filler"	NA	"no"	863	1059	196	5	"yes"	"1"	"-spelling"	"10_1"
1	"A1"	2	10	20	"male"	"right"	"Ilse"	173	"n54_0_p1_1_mono.wav"	"le garfait"	"no"	"no"	"filler"	NA	"no"	936	1757	821	1	"yes"	"1"	"-spelling"	"10_1"
1	"A1"	2	10	20	"male"	"right"	"Ilse"	174	"n68_0_p3_1_mono.wav"	"la moucle"	"no"	"no"	"filler"	NA	"no"	808	2416	1608	1	"yes"	"1"	"-spelling"	"10_1"
1	"A1"	2	10	20	"male"	"right"	"Ilse"	175	"f06_0_p2_1_mono.wav"	"le point"	"no"	"yes"	"filler"	NA	"no"	697	3586	2889	5	"yes"	"1"	"-spelling"	"10_1"
1	"A1"	2	10	20	"male"	"right"	"Ilse"	176	"f48_0_p3_1_mono.wav"	"la scène"	"no"	"yes"	"filler"	NA	"no"	862	3312	2450	5	"yes"	"1"	"-spelling"	"10_1"
1	"A1"	2	10	20	"male"	"right"	"Ilse"	177	"t12_1_p4_2_mono.wav"	"le requin"	"yes"	"yes"	"mismatch"	"u"	"yes"	619	3867	3248	1	"no"	"1"	"-spelling"	"10_1"
1	"A1"	2	10	20	"male"	"right"	"Ilse"	178	"n84_0_p4_1_mono.wav"	"le vort"	"no"	"no"	"filler"	NA	"no"	798	3081	2283	5	"no"	"1"	"-spelling"	"10_1"
1	"A1"	2	10	20	"male"	"right"	"Ilse"	179	"n37_0_p4_1_mono.wav"	"le padiot"	"no"	"no"	"filler"	NA	"no"	652	2314	1662	5	"no"	"1"	"-spelling"	"10_1"
1	"A1"	2	10	20	"male"	"right"	"Ilse"	180	"t17_2_p4_2_mono.wav"	"la s'moule"	"yes"	"yes"	"match"	"r"	"yes"	894	2446	1552	1	"no"	"1"	"-spelling"	"10_1"
1	"A1"	2	10	20	"male"	"right"	"Ilse"	181	"n95_2_p4_1_mono.wav"	"le r'pus"	"no"	"no"	"filler"	"r"	"yes"	927	4317	3390	1	"yes"	"1"	"-spelling"	"10_1"
1	"A1"	2	10	20	"male"	"right"	"Ilse"	182	"n92_2_p4_1_mono.wav"	"le r'gure"	"no"	"no"	"filler"	"r"	"yes"	878	1884	1006	1	"yes"	"1"	"-spelling"	"10_1"
1	"A1"	2	10	20	"male"	"right"	"Ilse"	183	"n41_0_p2_1_mono.wav"	"l'agime"	"no"	"no"	"filler"	NA	"no"	766	1387	621	5	"no"	"1"	"-spelling"	"10_1"
1	"A1"	2	10	20	"male"	"right"	"Ilse"	184	"f69_2_p2_1_mono.wav"	"le r'gistre"	"no"	"yes"	"filler"	"r"	"yes"	946	1658	712	1	"no"	"1"	"-spelling"	"10_1"
1	"A1"	2	10	20	"male"	"right"	"Ilse"	185	"f07_0_p4_1_mono.wav"	"l'année"	"no"	"yes"	"filler"	NA	"no"	683	2547	1864	1	"no"	"1"	"-spelling"	"10_1"
1	"A1"	2	10	20	"male"	"right"	"Ilse"	186	"n21_2_p1_1_mono.wav"	"le r'pèze"	"no"	"no"	"filler"	"r"	"yes"	831	2200	1369	5	"no"	"1"	"-spelling"	"10_1"
1	"A1"	2	10	20	"male"	"right"	"Ilse"	187	"f28_0_p4_1_mono.wav"	"le frère"	"no"	"yes"	"filler"	NA	"no"	938	1326	388	5	"yes"	"1"	"-spelling"	"10_1"
1	"A1"	2	10	20	"male"	"right"	"Ilse"	188	"f64_1_p3_1_mono.wav"	"le melon"	"no"	"yes"	"filler"	"u"	"yes"	682	5997	5315	1	"no"	"1"	"-spelling"	"10_1"
1	"A1"	2	10	20	"male"	"right"	"Ilse"	189	"n26_0_p4_1_mono.wav"	"la jun"	"no"	"no"	"filler"	NA	"no"	568	4690	4122	1	"yes"	"1"	"-spelling"	"10_1"
1	"A1"	2	10	20	"male"	"right"	"Ilse"	190	"f68_2_p4_1_mono.wav"	"le r'tard"	"no"	"yes"	"filler"	"r"	"yes"	935	2386	1451	5	"yes"	"1"	"-spelling"	"10_1"
1	"A1"	2	10	20	"male"	"right"	"Ilse"	191	"n15_1_p1_1_mono.wav"	"la pessade"	"no"	"no"	"filler"	"u"	"yes"	854	4076	3222	5	"no"	"1"	"-spelling"	"10_1"
1	"A1"	2	10	20	"male"	"right"	"Ilse"	192	"t18_1_p2_2_mono.wav"	"le reflet"	"yes"	"yes"	"mismatch"	"u"	"yes"	845	1301	456	5	"yes"	"1"	"-spelling"	"10_1"
1	"A1"	2	40	21	"female"	"right"	"Other"	1	"f66_2_p2_1_mono.wav"	"le d'main"	"no"	"yes"	"filler"	"r"	"yes"	671	1415	744	1	"no"	"1"	"-spelling"	"40_1"
1	"A1"	2	40	21	"female"	"right"	"Other"	2	"n75_0_p2_1_mono.wav"	"le fège"	"no"	"no"	"filler"	NA	"no"	882	1461	579	5	"no"	"1"	"-spelling"	"40_1"
1	"A1"	2	40	21	"female"	"right"	"Other"	3	"f34_0_p1_1_mono.wav"	"le silence"	"no"	"yes"	"filler"	NA	"no"	931	1312	381	5	"yes"	"1"	"-spelling"	"40_1"
1	"A1"	2	40	21	"female"	"right"	"Other"	4	"f72_1_p1_1_mono.wav"	"la revanche"	"no"	"yes"	"filler"	"u"	"yes"	900	1349	449	5	"yes"	"1"	"-spelling"	"40_1"
1	"A1"	2	40	21	"female"	"right"	"Other"	5	"n29_0_p2_1_mono.wav"	"le choint"	"no"	"no"	"filler"	NA	"no"	721	1313	592	1	"yes"	"1"	"-spelling"	"40_1"
1	"A1"	2	40	21	"female"	"right"	"Other"	6	"f67_1_p3_1_mono.wav"	"le refuge"	"no"	"yes"	"filler"	"u"	"yes"	888	1761	873	5	"yes"	"1"	"-spelling"	"40_1"
1	"A1"	2	40	21	"female"	"right"	"Other"	7	"f32_0_p4_1_mono.wav"	"le moment"	"no"	"yes"	"filler"	NA	"no"	534	1442	908	5	"yes"	"1"	"-spelling"	"40_1"
1	"A1"	2	40	21	"female"	"right"	"Other"	8	"n73_0_p1_1_mono.wav"	"le buveau"	"no"	"no"	"filler"	NA	"no"	615	1214	599	1	"yes"	"1"	"-spelling"	"40_1"
1	"A1"	2	40	21	"female"	"right"	"Other"	9	"n03_1_p1_1_mono.wav"	"la mequisse"	"no"	"no"	"filler"	"u"	"yes"	908	1368	460	1	"yes"	"1"	"-spelling"	"40_1"
1	"A1"	2	40	21	"female"	"right"	"Other"	10	"f50_0_p2_1_mono.wav"	"le café"	"no"	"yes"	"filler"	NA	"no"	827	1137	310	5	"yes"	"1"	"-spelling"	"40_1"
1	"A1"	2	40	21	"female"	"right"	"Other"	11	"f30_0_p4_1_mono.wav"	"le garçon"	"no"	"yes"	"filler"	NA	"no"	615	1186	571	5	"yes"	"1"	"-spelling"	"40_1"
1	"A1"	2	40	21	"female"	"right"	"Other"	12	"n58_0_p1_1_mono.wav"	"la siture"	"no"	"no"	"filler"	NA	"no"	885	1471	586	5	"no"	"1"	"-spelling"	"40_1"
1	"A1"	2	40	21	"female"	"right"	"Other"	13	"n22_2_p3_1_mono.wav"	"le r'logue"	"no"	"no"	"filler"	"r"	"yes"	818	2222	1404	5	"no"	"1"	"-spelling"	"40_1"
1	"A1"	2	40	21	"female"	"right"	"Other"	14	"n74_0_p1_1_mono.wav"	"le camont"	"no"	"no"	"filler"	NA	"no"	665	1361	696	1	"yes"	"1"	"-spelling"	"40_1"
1	"A1"	2	40	21	"female"	"right"	"Other"	15	"f61_1_p3_1_mono.wav"	"le semi"	"no"	"yes"	"filler"	"u"	"yes"	716	1726	1010	1	"no"	"1"	"-spelling"	"40_1"
1	"A1"	2	40	21	"female"	"right"	"Other"	16	"n31_0_p1_1_mono.wav"	"l'annue"	"no"	"no"	"filler"	NA	"no"	692	1314	622	5	"no"	"1"	"-spelling"	"40_1"
1	"A1"	2	40	21	"female"	"right"	"Other"	17	"n01_2_p1_1_mono.wav"	"la b'rasse"	"no"	"no"	"filler"	"r"	"yes"	889	1376	487	5	"no"	"1"	"-spelling"	"40_1"
1	"A1"	2	40	21	"female"	"right"	"Other"	18	"f62_1_p1_1_mono.wav"	"le ressort"	"no"	"yes"	"filler"	"u"	"yes"	881	1471	590	5	"yes"	"1"	"-spelling"	"40_1"
1	"A1"	2	40	21	"female"	"right"	"Other"	19	"n96_1_p2_1_mono.wav"	"la refare"	"no"	"no"	"filler"	"u"	"yes"	986	1489	503	1	"yes"	"1"	"-spelling"	"40_1"
1	"A1"	2	40	21	"female"	"right"	"Other"	20	"n70_0_p1_1_mono.wav"	"la nale"	"no"	"no"	"filler"	NA	"no"	727	1309	582	1	"yes"	"1"	"-spelling"	"40_1"
1	"A1"	2	40	21	"female"	"right"	"Other"	21	"f04_0_p2_1_mono.wav"	"la soeur"	"no"	"yes"	"filler"	NA	"no"	790	1518	728	5	"yes"	"1"	"-spelling"	"40_1"
1	"A1"	2	40	21	"female"	"right"	"Other"	22	"n89_1_p3_1_mono.wav"	"le rebil"	"no"	"no"	"filler"	"u"	"yes"	912	1320	408	1	"yes"	"1"	"-spelling"	"40_1"
1	"A1"	2	40	21	"female"	"right"	"Other"	23	"n60_0_p1_1_mono.wav"	"le tinge"	"no"	"no"	"filler"	NA	"no"	954	1447	493	5	"no"	"1"	"-spelling"	"40_1"
1	"A1"	2	40	21	"female"	"right"	"Other"	24	"t22_1_p4_2_mono.wav"	"le renard"	"yes"	"yes"	"mismatch"	"u"	"yes"	935	1423	488	5	"yes"	"1"	"-spelling"	"40_1"
1	"A1"	2	40	21	"female"	"right"	"Other"	25	"n91_2_p3_1_mono.wav"	"le r'lide"	"no"	"no"	"filler"	"r"	"yes"	861	1179	318	1	"yes"	"1"	"-spelling"	"40_1"
1	"A1"	2	40	21	"female"	"right"	"Other"	26	"f71_2_p1_1_mono.wav"	"le r'cord"	"no"	"yes"	"filler"	"r"	"yes"	866	1698	832	5	"yes"	"1"	"-spelling"	"40_1"
1	"A1"	2	40	21	"female"	"right"	"Other"	27	"f03_0_p4_1_mono.wav"	"la nuit"	"no"	"yes"	"filler"	NA	"no"	735	1153	418	5	"yes"	"1"	"-spelling"	"40_1"
1	"A1"	2	40	21	"female"	"right"	"Other"	28	"n05_1_p4_1_mono.wav"	"le gegnoble"	"no"	"no"	"filler"	"u"	"yes"	987	1707	720	1	"yes"	"1"	"-spelling"	"40_1"
1	"A1"	2	40	21	"female"	"right"	"Other"	29	"n49_0_p2_1_mono.wav"	"la questier"	"no"	"no"	"filler"	NA	"no"	963	1811	848	1	"yes"	"1"	"-spelling"	"40_1"
1	"A1"	2	40	21	"female"	"right"	"Other"	30	"n27_0_p2_1_mono.wav"	"la tuit"	"no"	"no"	"filler"	NA	"no"	916	2267	1351	1	"yes"	"1"	"-spelling"	"40_1"
1	"A1"	2	40	21	"female"	"right"	"Other"	31	"n39_0_p2_1_mono.wav"	"le grat"	"no"	"no"	"filler"	NA	"no"	621	2148	1527	1	"yes"	"1"	"-spelling"	"40_1"
1	"A1"	2	40	21	"female"	"right"	"Other"	32	"f19_0_p2_1_mono.wav"	"l'idée"	"no"	"yes"	"filler"	NA	"no"	796	1362	566	5	"yes"	"1"	"-spelling"	"40_1"
1	"A1"	2	40	21	"female"	"right"	"Other"	33	"n02_2_p2_1_mono.wav"	"la l'druche"	"no"	"no"	"filler"	"r"	"yes"	869	1549	680	1	"yes"	"1"	"-spelling"	"40_1"
1	"A1"	2	40	21	"female"	"right"	"Other"	34	"f41_0_p4_1_mono.wav"	"la carte"	"no"	"yes"	"filler"	NA	"no"	836	1196	360	5	"yes"	"1"	"-spelling"	"40_1"
1	"A1"	2	40	21	"female"	"right"	"Other"	35	"f47_0_p2_1_mono.wav"	"la route"	"no"	"yes"	"filler"	NA	"no"	797	1549	752	5	"yes"	"1"	"-spelling"	"40_1"
1	"A1"	2	40	21	"female"	"right"	"Other"	36	"n09_2_p1_1_mono.wav"	"le f'mmeil"	"no"	"no"	"filler"	"r"	"yes"	927	1537	610	1	"yes"	"1"	"-spelling"	"40_1"
1	"A1"	2	40	21	"female"	"right"	"Other"	37	"t11_2_p3_2_mono.wav"	"le r'mous"	"yes"	"yes"	"match"	"r"	"yes"	562	1721	1159	1	"no"	"1"	"-spelling"	"40_1"
1	"A1"	2	40	21	"female"	"right"	"Other"	38	"n90_2_p2_1_mono.wav"	"le d'sseau"	"no"	"no"	"filler"	"r"	"yes"	683	1716	1033	1	"yes"	"1"	"-spelling"	"40_1"
1	"A1"	2	40	21	"female"	"right"	"Other"	39	"f01_0_p4_1_mono.wav"	"l'oncle"	"no"	"yes"	"filler"	NA	"no"	764	1265	501	5	"yes"	"1"	"-spelling"	"40_1"
1	"A1"	2	40	21	"female"	"right"	"Other"	40	"f44_0_p1_1_mono.wav"	"la lettre"	"no"	"yes"	"filler"	NA	"no"	839	1221	382	5	"yes"	"1"	"-spelling"	"40_1"
1	"A1"	2	40	21	"female"	"right"	"Other"	41	"n33_0_p2_1_mono.wav"	"la juisse"	"no"	"no"	"filler"	NA	"no"	912	1518	606	5	"no"	"1"	"-spelling"	"40_1"
1	"A1"	2	40	21	"female"	"right"	"Other"	42	"n44_0_p1_1_mono.wav"	"la fanouille"	"no"	"no"	"filler"	NA	"no"	852	1746	894	1	"yes"	"1"	"-spelling"	"40_1"
1	"A1"	2	40	21	"female"	"right"	"Other"	43	"n65_0_p4_1_mono.wav"	"la murte"	"no"	"no"	"filler"	NA	"no"	894	1716	822	1	"yes"	"1"	"-spelling"	"40_1"
1	"A1"	2	40	21	"female"	"right"	"Other"	44	"n62_0_p4_1_mono.wav"	"l'hosor"	"no"	"no"	"filler"	NA	"no"	774	1624	850	1	"yes"	"1"	"-spelling"	"40_1"
1	"A1"	2	40	21	"female"	"right"	"Other"	45	"f70_1_p1_1_mono.wav"	"le semestre"	"no"	"yes"	"filler"	"u"	"yes"	947	1225	278	5	"yes"	"1"	"-spelling"	"40_1"
1	"A1"	2	40	21	"female"	"right"	"Other"	46	"t21_2_p3_2_mono.wav"	"le r'cul"	"yes"	"yes"	"match"	"r"	"yes"	840	1457	617	5	"yes"	"1"	"-spelling"	"40_1"
1	"A1"	2	40	21	"female"	"right"	"Other"	47	"n69_0_p1_1_mono.wav"	"la madaine"	"no"	"no"	"filler"	NA	"no"	885	1678	793	1	"yes"	"1"	"-spelling"	"40_1"
1	"A1"	2	40	21	"female"	"right"	"Other"	48	"f55_0_p4_1_mono.wav"	"le livre"	"no"	"yes"	"filler"	NA	"no"	872	1170	298	5	"yes"	"1"	"-spelling"	"40_1"
1	"A1"	2	40	21	"female"	"right"	"Other"	49	"f27_0_p1_1_mono.wav"	"le cadeau"	"no"	"yes"	"filler"	NA	"no"	604	1440	836	5	"yes"	"1"	"-spelling"	"40_1"
1	"A1"	2	40	21	"female"	"right"	"Other"	50	"n50_0_p2_1_mono.wav"	"la rille"	"no"	"no"	"filler"	NA	"no"	802	1166	364	1	"yes"	"1"	"-spelling"	"40_1"
1	"A1"	2	40	21	"female"	"right"	"Other"	51	"f45_0_p2_1_mono.wav"	"la madame"	"no"	"yes"	"filler"	NA	"no"	767	1084	317	5	"yes"	"1"	"-spelling"	"40_1"
1	"A1"	2	40	21	"female"	"right"	"Other"	52	"n20_1_p1_1_mono.wav"	"le mejet"	"no"	"no"	"filler"	"u"	"yes"	793	1335	542	1	"yes"	"1"	"-spelling"	"40_1"
1	"A1"	2	40	21	"female"	"right"	"Other"	53	"n35_0_p3_1_mono.wav"	"le missien"	"no"	"no"	"filler"	NA	"no"	721	1411	690	5	"no"	"1"	"-spelling"	"40_1"
1	"A1"	2	40	21	"female"	"right"	"Other"	54	"n19_1_p3_1_mono.wav"	"le chedel"	"no"	"no"	"filler"	"u"	"yes"	870	1441	571	1	"yes"	"1"	"-spelling"	"40_1"
1	"A1"	2	40	21	"female"	"right"	"Other"	55	"n63_0_p1_1_mono.wav"	"la histienne"	"no"	"no"	"filler"	NA	"no"	786	1758	972	1	"yes"	"1"	"-spelling"	"40_1"
1	"A1"	2	40	21	"female"	"right"	"Other"	56	"f18_0_p3_1_mono.wav"	"l'enfant"	"no"	"yes"	"filler"	NA	"no"	513	914	401	5	"yes"	"1"	"-spelling"	"40_1"
1	"A1"	2	40	21	"female"	"right"	"Other"	57	"n64_0_p3_1_mono.wav"	"l'oune"	"no"	"no"	"filler"	NA	"no"	601	1375	774	5	"no"	"1"	"-spelling"	"40_1"
1	"A1"	2	40	21	"female"	"right"	"Other"	58	"n52_0_p2_1_mono.wav"	"le drère"	"no"	"no"	"filler"	NA	"no"	819	1741	922	1	"yes"	"1"	"-spelling"	"40_1"
1	"A1"	2	40	21	"female"	"right"	"Other"	59	"n11_1_p4_1_mono.wav"	"le refant"	"no"	"no"	"filler"	"u"	"yes"	700	1908	1208	1	"yes"	"1"	"-spelling"	"40_1"
1	"A1"	2	40	21	"female"	"right"	"Other"	60	"n61_0_p3_1_mono.wav"	"l'apure"	"no"	"no"	"filler"	NA	"no"	885	1307	422	5	"no"	"1"	"-spelling"	"40_1"
1	"A1"	2	40	21	"female"	"right"	"Other"	61	"t24_1_p2_2_mono.wav"	"le faisan"	"yes"	"yes"	"mismatch"	"u"	"yes"	686	2122	1436	1	"no"	"1"	"-spelling"	"40_1"
1	"A1"	2	40	21	"female"	"right"	"Other"	62	"f57_0_p2_1_mono.wav"	"le prix"	"no"	"yes"	"filler"	NA	"no"	792	1948	1156	1	"no"	"1"	"-spelling"	"40_1"
1	"A1"	2	40	21	"female"	"right"	"Other"	63	"f53_0_p2_1_mono.wav"	"le groupe"	"no"	"yes"	"filler"	NA	"no"	744	1364	620	5	"yes"	"1"	"-spelling"	"40_1"
1	"A1"	2	40	21	"female"	"right"	"Other"	64	"n86_1_p3_1_mono.wav"	"le repire"	"no"	"no"	"filler"	"u"	"yes"	965	1541	576	1	"yes"	"1"	"-spelling"	"40_1"
1	"A1"	2	40	21	"female"	"right"	"Other"	65	"n76_0_p4_1_mono.wav"	"le tenre"	"no"	"no"	"filler"	NA	"no"	832	2840	2008	1	"yes"	"1"	"-spelling"	"40_1"
1	"A1"	2	40	21	"female"	"right"	"Other"	66	"t15_2_p2_2_mono.wav"	"la p'louse"	"yes"	"yes"	"match"	"r"	"yes"	889	1189	300	5	"yes"	"1"	"-spelling"	"40_1"
1	"A1"	2	40	21	"female"	"right"	"Other"	67	"n17_2_p4_1_mono.wav"	"la s'gence"	"no"	"no"	"filler"	"r"	"yes"	1084	2463	1379	1	"yes"	"1"	"-spelling"	"40_1"
1	"A1"	2	40	21	"female"	"right"	"Other"	68	"t10_1_p1_2_mono.wav"	"le rebond"	"yes"	"yes"	"mismatch"	"u"	"yes"	640	981	341	5	"yes"	"1"	"-spelling"	"40_1"
1	"A1"	2	40	21	"female"	"right"	"Other"	69	"n34_0_p3_1_mono.wav"	"le teau"	"no"	"no"	"filler"	NA	"no"	473	1477	1004	1	"yes"	"1"	"-spelling"	"40_1"
1	"A1"	2	40	21	"female"	"right"	"Other"	70	"f40_0_p1_1_mono.wav"	"l'homme"	"no"	"yes"	"filler"	NA	"no"	638	830	192	5	"yes"	"1"	"-spelling"	"40_1"
1	"A1"	2	40	21	"female"	"right"	"Other"	71	"f58_0_p1_1_mono.wav"	"le service"	"no"	"yes"	"filler"	NA	"no"	935	1310	375	5	"yes"	"1"	"-spelling"	"40_1"
1	"A1"	2	40	21	"female"	"right"	"Other"	72	"n13_1_p2_1_mono.wav"	"le seblème"	"no"	"no"	"filler"	"u"	"yes"	846	2012	1166	5	"no"	"1"	"-spelling"	"40_1"
1	"A1"	2	40	21	"female"	"right"	"Other"	73	"n94_1_p2_1_mono.wav"	"le sequestre"	"no"	"no"	"filler"	"u"	"yes"	1007	1656	649	1	"yes"	"1"	"-spelling"	"40_1"
1	"A1"	2	40	21	"female"	"right"	"Other"	74	"n57_0_p1_1_mono.wav"	"le ratime"	"no"	"no"	"filler"	NA	"no"	859	1434	575	1	"yes"	"1"	"-spelling"	"40_1"
1	"A1"	2	40	21	"female"	"right"	"Other"	75	"n77_0_p4_1_mono.wav"	"le bruc"	"no"	"no"	"filler"	NA	"no"	880	1421	541	5	"no"	"1"	"-spelling"	"40_1"
1	"A1"	2	40	21	"female"	"right"	"Other"	76	"f24_0_p2_1_mono.wav"	"la maison"	"no"	"yes"	"filler"	NA	"no"	625	995	370	5	"yes"	"1"	"-spelling"	"40_1"
1	"A1"	2	40	21	"female"	"right"	"Other"	77	"n45_0_p3_1_mono.wav"	"la horgune"	"no"	"no"	"filler"	NA	"no"	731	1410	679	1	"yes"	"1"	"-spelling"	"40_1"
1	"A1"	2	40	21	"female"	"right"	"Other"	78	"t04_1_p1_2_mono.wav"	"la reliure"	"yes"	"yes"	"mismatch"	"u"	"yes"	1026	1596	570	5	"yes"	"1"	"-spelling"	"40_1"
1	"A1"	2	40	21	"female"	"right"	"Other"	79	"f31_0_p3_1_mono.wav"	"le jour"	"no"	"yes"	"filler"	NA	"no"	878	1985	1107	5	"yes"	"1"	"-spelling"	"40_1"
1	"A1"	2	40	21	"female"	"right"	"Other"	80	"n24_2_p4_1_mono.wav"	"le f'quon"	"no"	"no"	"filler"	"r"	"yes"	660	1293	633	1	"yes"	"1"	"-spelling"	"40_1"
1	"A1"	2	40	21	"female"	"right"	"Other"	81	"n40_0_p3_1_mono.wav"	"l'équise"	"no"	"no"	"filler"	NA	"no"	872	1703	831	5	"no"	"1"	"-spelling"	"40_1"
1	"A1"	2	40	21	"female"	"right"	"Other"	82	"n59_0_p4_1_mono.wav"	"le solti"	"no"	"no"	"filler"	NA	"no"	856	3026	2170	1	"yes"	"1"	"-spelling"	"40_1"
1	"A1"	2	40	21	"female"	"right"	"Other"	83	"t16_1_p1_2_mono.wav"	"la peluche"	"yes"	"yes"	"mismatch"	"u"	"yes"	846	1226	380	5	"yes"	"1"	"-spelling"	"40_1"
1	"A1"	2	40	21	"female"	"right"	"Other"	84	"f13_0_p4_1_mono.wav"	"le papier"	"no"	"yes"	"filler"	NA	"no"	977	1582	605	5	"yes"	"1"	"-spelling"	"40_1"
1	"A1"	2	40	21	"female"	"right"	"Other"	85	"f22_0_p3_1_mono.wav"	"la journée"	"no"	"yes"	"filler"	NA	"no"	793	1205	412	5	"yes"	"1"	"-spelling"	"40_1"
1	"A1"	2	40	21	"female"	"right"	"Other"	86	"f59_0_p2_1_mono.wav"	"le soleil"	"no"	"yes"	"filler"	NA	"no"	871	1099	228	5	"yes"	"1"	"-spelling"	"40_1"
1	"A1"	2	40	21	"female"	"right"	"Other"	87	"f42_0_p1_1_mono.wav"	"la chance"	"no"	"yes"	"filler"	NA	"no"	807	1292	485	5	"yes"	"1"	"-spelling"	"40_1"
1	"A1"	2	40	21	"female"	"right"	"Other"	88	"n80_0_p2_1_mono.wav"	"le péhut"	"no"	"no"	"filler"	NA	"no"	988	1647	659	1	"yes"	"1"	"-spelling"	"40_1"
1	"A1"	2	40	21	"female"	"right"	"Other"	89	"n67_0_p2_1_mono.wav"	"la janne"	"no"	"no"	"filler"	NA	"no"	765	1376	611	5	"no"	"1"	"-spelling"	"40_1"
1	"A1"	2	40	21	"female"	"right"	"Other"	90	"f54_0_p1_1_mono.wav"	"le journal"	"no"	"yes"	"filler"	NA	"no"	910	2000	1090	5	"yes"	"1"	"-spelling"	"40_1"
1	"A1"	2	40	21	"female"	"right"	"Other"	91	"f02_0_p2_1_mono.wav"	"la main"	"no"	"yes"	"filler"	NA	"no"	540	1397	857	1	"no"	"1"	"-spelling"	"40_1"
1	"A1"	2	40	21	"female"	"right"	"Other"	92	"t14_1_p2_2_mono.wav"	"la chenille"	"yes"	"yes"	"mismatch"	"u"	"yes"	938	1384	446	5	"yes"	"1"	"-spelling"	"40_1"
1	"A1"	2	40	21	"female"	"right"	"Other"	93	"n42_0_p1_1_mono.wav"	"l'endos"	"no"	"no"	"filler"	NA	"no"	588	1807	1219	1	"yes"	"1"	"-spelling"	"40_1"
1	"A1"	2	40	21	"female"	"right"	"Other"	94	"f29_0_p3_1_mono.wav"	"le fromage"	"no"	"yes"	"filler"	NA	"no"	818	880	62	5	"yes"	"1"	"-spelling"	"40_1"
1	"A1"	2	40	21	"female"	"right"	"Other"	95	"n38_0_p2_1_mono.wav"	"le suir"	"no"	"no"	"filler"	NA	"no"	855	1768	913	1	"yes"	"1"	"-spelling"	"40_1"
1	"A1"	2	40	21	"female"	"right"	"Other"	96	"f65_2_p1_1_mono.wav"	"le r'paire"	"no"	"yes"	"filler"	"r"	"yes"	914	2077	1163	5	"yes"	"1"	"-spelling"	"40_1"
1	"A1"	2	40	21	"female"	"right"	"Other"	97	"f56_0_p3_1_mono.wav"	"le pays"	"no"	"yes"	"filler"	NA	"no"	738	1898	1160	5	"yes"	"1"	"-spelling"	"40_1"
1	"A1"	2	40	21	"female"	"right"	"Other"	98	"n06_1_p2_1_mono.wav"	"le retal"	"no"	"no"	"filler"	"u"	"yes"	907	1540	633	1	"yes"	"1"	"-spelling"	"40_1"
1	"A1"	2	40	21	"female"	"right"	"Other"	99	"f21_0_p1_1_mono.wav"	"la horloge"	"no"	"yes"	"filler"	NA	"no"	691	1117	426	5	"yes"	"1"	"-spelling"	"40_1"
1	"A1"	2	40	21	"female"	"right"	"Other"	100	"t23_2_p2_2_mono.wav"	"la s'cousse"	"yes"	"yes"	"match"	"r"	"yes"	865	1336	471	5	"yes"	"1"	"-spelling"	"40_1"
1	"A1"	2	40	21	"female"	"right"	"Other"	101	"f46_0_p1_1_mono.wav"	"la part"	"no"	"yes"	"filler"	NA	"no"	851	2121	1270	5	"yes"	"1"	"-spelling"	"40_1"
1	"A1"	2	40	21	"female"	"right"	"Other"	102	"n87_1_p3_1_mono.wav"	"le chenache"	"no"	"no"	"filler"	"u"	"yes"	881	2064	1183	1	"yes"	"1"	"-spelling"	"40_1"
1	"A1"	2	40	21	"female"	"right"	"Other"	103	"n43_0_p2_1_mono.wav"	"l'ivée"	"no"	"no"	"filler"	NA	"no"	804	2295	1491	1	"yes"	"1"	"-spelling"	"40_1"
1	"A1"	2	40	21	"female"	"right"	"Other"	104	"n71_0_p3_1_mono.wav"	"la foite"	"no"	"no"	"filler"	NA	"no"	994	1273	279	5	"no"	"1"	"-spelling"	"40_1"
1	"A1"	2	40	21	"female"	"right"	"Other"	105	"n36_0_p1_1_mono.wav"	"le linde"	"no"	"no"	"filler"	NA	"no"	848	2580	1732	1	"yes"	"1"	"-spelling"	"40_1"
1	"A1"	2	40	21	"female"	"right"	"Other"	106	"n78_0_p1_1_mono.wav"	"le jourlingue"	"no"	"no"	"filler"	NA	"no"	993	2591	1598	5	"no"	"1"	"-spelling"	"40_1"
1	"A1"	2	40	21	"female"	"right"	"Other"	107	"f23_0_p1_1_mono.wav"	"la mère"	"no"	"yes"	"filler"	NA	"no"	902	1168	266	1	"no"	"1"	"-spelling"	"40_1"
1	"A1"	2	40	21	"female"	"right"	"Other"	108	"f09_0_p2_1_mono.wav"	"la pièce"	"no"	"yes"	"filler"	NA	"no"	830	2129	1299	5	"yes"	"1"	"-spelling"	"40_1"
1	"A1"	2	40	21	"female"	"right"	"Other"	109	"f36_0_p1_1_mono.wav"	"le type"	"no"	"yes"	"filler"	NA	"no"	965	1721	756	1	"no"	"1"	"-spelling"	"40_1"
1	"A1"	2	40	21	"female"	"right"	"Other"	110	"f38_0_p3_1_mono.wav"	"l'hôtel"	"no"	"yes"	"filler"	NA	"no"	721	965	244	5	"yes"	"1"	"-spelling"	"40_1"
1	"A1"	2	40	21	"female"	"right"	"Other"	111	"f20_0_p3_1_mono.wav"	"la famille"	"no"	"yes"	"filler"	NA	"no"	856	1813	957	5	"yes"	"1"	"-spelling"	"40_1"
1	"A1"	2	40	21	"female"	"right"	"Other"	112	"n93_2_p3_1_mono.wav"	"le r'vercle"	"no"	"no"	"filler"	"r"	"yes"	806	1751	945	1	"yes"	"1"	"-spelling"	"40_1"
1	"A1"	2	40	21	"female"	"right"	"Other"	113	"f26_0_p1_1_mono.wav"	"la ville"	"no"	"yes"	"filler"	NA	"no"	741	1092	351	5	"yes"	"1"	"-spelling"	"40_1"
1	"A1"	2	40	21	"female"	"right"	"Other"	114	"n18_1_p3_1_mono.wav"	"le reclin"	"no"	"no"	"filler"	"u"	"yes"	888	1601	713	5	"no"	"1"	"-spelling"	"40_1"
1	"A1"	2	40	21	"female"	"right"	"Other"	115	"n32_0_p1_1_mono.wav"	"l'heule"	"no"	"no"	"filler"	NA	"no"	678	1281	603	1	"yes"	"1"	"-spelling"	"40_1"
1	"A1"	2	40	21	"female"	"right"	"Other"	116	"t01_2_p4_2_mono.wav"	"la b'lette"	"yes"	"yes"	"match"	"r"	"yes"	879	1185	306	5	"yes"	"1"	"-spelling"	"40_1"
1	"A1"	2	40	21	"female"	"right"	"Other"	117	"n23_2_p1_1_mono.wav"	"la s'pave"	"no"	"no"	"filler"	"r"	"yes"	945	1571	626	1	"yes"	"1"	"-spelling"	"40_1"
1	"A1"	2	40	21	"female"	"right"	"Other"	118	"t02_1_p1_2_mono.wav"	"la levrette"	"yes"	"yes"	"mismatch"	"u"	"yes"	856	1130	274	5	"yes"	"1"	"-spelling"	"40_1"
1	"A1"	2	40	21	"female"	"right"	"Other"	119	"n30_0_p2_1_mono.wav"	"le pien"	"no"	"no"	"filler"	NA	"no"	691	1344	653	1	"yes"	"1"	"-spelling"	"40_1"
1	"A1"	2	40	21	"female"	"right"	"Other"	120	"f39_0_p1_1_mono.wav"	"l'histoire"	"no"	"yes"	"filler"	NA	"no"	949	1084	135	5	"yes"	"1"	"-spelling"	"40_1"
1	"A1"	2	40	21	"female"	"right"	"Other"	121	"t08_1_p3_2_mono.wav"	"la semelle"	"yes"	"yes"	"mismatch"	"u"	"yes"	916	1592	676	1	"no"	"1"	"-spelling"	"40_1"
1	"A1"	2	40	21	"female"	"right"	"Other"	122	"f63_2_p4_1_mono.wav"	"le ch'val"	"no"	"yes"	"filler"	"r"	"yes"	779	1305	526	5	"yes"	"1"	"-spelling"	"40_1"
1	"A1"	2	40	21	"female"	"right"	"Other"	123	"n16_2_p4_1_mono.wav"	"la p'doche"	"no"	"no"	"filler"	"r"	"yes"	875	1899	1024	1	"yes"	"1"	"-spelling"	"40_1"
1	"A1"	2	40	21	"female"	"right"	"Other"	124	"t07_2_p1_2_mono.wav"	"la b'daine"	"yes"	"yes"	"match"	"r"	"yes"	756	1074	318	5	"yes"	"1"	"-spelling"	"40_1"
1	"A1"	2	40	21	"female"	"right"	"Other"	125	"f17_0_p4_1_mono.wav"	"l'accord"	"no"	"yes"	"filler"	NA	"no"	866	1548	682	1	"no"	"1"	"-spelling"	"40_1"
1	"A1"	2	40	21	"female"	"right"	"Other"	126	"t13_2_p3_2_mono.wav"	"le s'vrage"	"yes"	"yes"	"match"	"r"	"yes"	998	1288	290	5	"yes"	"1"	"-spelling"	"40_1"
1	"A1"	2	40	21	"female"	"right"	"Other"	127	"f10_0_p2_1_mono.wav"	"le chat"	"no"	"yes"	"filler"	NA	"no"	582	1119	537	5	"yes"	"1"	"-spelling"	"40_1"
1	"A1"	2	40	21	"female"	"right"	"Other"	128	"n48_0_p2_1_mono.wav"	"la mainou"	"no"	"no"	"filler"	NA	"no"	740	1347	607	1	"yes"	"1"	"-spelling"	"40_1"
1	"A1"	2	40	21	"female"	"right"	"Other"	129	"f11_0_p2_1_mono.wav"	"le milieu"	"no"	"yes"	"filler"	NA	"no"	753	1059	306	5	"yes"	"1"	"-spelling"	"40_1"
1	"A1"	2	40	21	"female"	"right"	"Other"	130	"n46_0_p1_1_mono.wav"	"la jourcie"	"no"	"no"	"filler"	NA	"no"	930	1270	340	1	"yes"	"1"	"-spelling"	"40_1"
1	"A1"	2	40	21	"female"	"right"	"Other"	131	"f37_0_p2_1_mono.wav"	"l'amour"	"no"	"yes"	"filler"	NA	"no"	839	959	120	5	"yes"	"1"	"-spelling"	"40_1"
1	"A1"	2	40	21	"female"	"right"	"Other"	132	"n53_0_p1_1_mono.wav"	"le frolège"	"no"	"no"	"filler"	NA	"no"	855	1122	267	1	"yes"	"1"	"-spelling"	"40_1"
1	"A1"	2	40	21	"female"	"right"	"Other"	133	"n88_1_p2_1_mono.wav"	"le messin"	"no"	"no"	"filler"	"u"	"yes"	704	1440	736	1	"yes"	"1"	"-spelling"	"40_1"
1	"A1"	2	40	21	"female"	"right"	"Other"	134	"n47_0_p4_1_mono.wav"	"la nure"	"no"	"no"	"filler"	NA	"no"	829	1112	283	5	"no"	"1"	"-spelling"	"40_1"
1	"A1"	2	40	21	"female"	"right"	"Other"	135	"n56_0_p3_1_mono.wav"	"le mossu"	"no"	"no"	"filler"	NA	"no"	820	1049	229	1	"yes"	"1"	"-spelling"	"40_1"
1	"A1"	2	40	21	"female"	"right"	"Other"	136	"t03_2_p2_2_mono.wav"	"la m'notte"	"yes"	"yes"	"match"	"r"	"yes"	889	1044	155	5	"yes"	"1"	"-spelling"	"40_1"
1	"A1"	2	40	21	"female"	"right"	"Other"	137	"n72_0_p3_1_mono.wav"	"la teune"	"no"	"no"	"filler"	NA	"no"	893	1191	298	1	"yes"	"1"	"-spelling"	"40_1"
1	"A1"	2	40	21	"female"	"right"	"Other"	138	"f35_0_p4_1_mono.wav"	"le soldat"	"no"	"yes"	"filler"	NA	"no"	677	1012	335	5	"yes"	"1"	"-spelling"	"40_1"
1	"A1"	2	40	21	"female"	"right"	"Other"	139	"t06_1_p1_2_mono.wav"	"le recel"	"yes"	"yes"	"mismatch"	"u"	"yes"	938	1206	268	5	"yes"	"1"	"-spelling"	"40_1"
1	"A1"	2	40	21	"female"	"right"	"Other"	140	"f25_0_p3_1_mono.wav"	"la question"	"no"	"yes"	"filler"	NA	"no"	728	1225	497	5	"yes"	"1"	"-spelling"	"40_1"
1	"A1"	2	40	21	"female"	"right"	"Other"	141	"n14_1_p1_1_mono.wav"	"la chemaille"	"no"	"no"	"filler"	"u"	"yes"	797	1068	271	1	"yes"	"1"	"-spelling"	"40_1"
1	"A1"	2	40	21	"female"	"right"	"Other"	142	"n79_0_p4_1_mono.wav"	"le tavre"	"no"	"no"	"filler"	NA	"no"	855	1280	425	1	"yes"	"1"	"-spelling"	"40_1"
1	"A1"	2	40	21	"female"	"right"	"Other"	143	"f08_0_p4_1_mono.wav"	"l'heure"	"no"	"yes"	"filler"	NA	"no"	735	934	199	5	"yes"	"1"	"-spelling"	"40_1"
1	"A1"	2	40	21	"female"	"right"	"Other"	144	"f33_0_p4_1_mono.wav"	"le rapport"	"no"	"yes"	"filler"	NA	"no"	872	1369	497	5	"yes"	"1"	"-spelling"	"40_1"
1	"A1"	2	40	21	"female"	"right"	"Other"	145	"n12_1_p1_1_mono.wav"	"le rechant"	"no"	"no"	"filler"	"u"	"yes"	686	1085	399	1	"yes"	"1"	"-spelling"	"40_1"
1	"A1"	2	40	21	"female"	"right"	"Other"	146	"f05_0_p2_1_mono.wav"	"le chien"	"no"	"yes"	"filler"	NA	"no"	668	1040	372	5	"yes"	"1"	"-spelling"	"40_1"
1	"A1"	2	40	21	"female"	"right"	"Other"	147	"f16_0_p4_1_mono.wav"	"l'école"	"no"	"yes"	"filler"	NA	"no"	771	1176	405	5	"yes"	"1"	"-spelling"	"40_1"
1	"A1"	2	40	21	"female"	"right"	"Other"	148	"t05_2_p3_2_mono.wav"	"le g'nièvre"	"yes"	"yes"	"match"	"r"	"yes"	943	1103	160	5	"yes"	"1"	"-spelling"	"40_1"
1	"A1"	2	40	21	"female"	"right"	"Other"	149	"n25_0_p1_1_mono.wav"	"l'incre"	"no"	"no"	"filler"	NA	"no"	771	1245	474	1	"yes"	"1"	"-spelling"	"40_1"
1	"A1"	2	40	21	"female"	"right"	"Other"	150	"f49_0_p2_1_mono.wav"	"le bureau"	"no"	"yes"	"filler"	NA	"no"	857	988	131	5	"yes"	"1"	"-spelling"	"40_1"
1	"A1"	2	40	21	"female"	"right"	"Other"	151	"n51_0_p4_1_mono.wav"	"le caffant"	"no"	"no"	"filler"	NA	"no"	644	1249	605	1	"yes"	"1"	"-spelling"	"40_1"
1	"A1"	2	40	21	"female"	"right"	"Other"	152	"n81_0_p1_1_mono.wav"	"le croux"	"no"	"no"	"filler"	NA	"no"	720	1811	1091	1	"yes"	"1"	"-spelling"	"40_1"
1	"A1"	2	40	21	"female"	"right"	"Other"	153	"n66_0_p2_1_mono.wav"	"la cance"	"no"	"no"	"filler"	NA	"no"	861	1350	489	1	"yes"	"1"	"-spelling"	"40_1"
1	"A1"	2	40	21	"female"	"right"	"Other"	154	"f60_0_p1_1_mono.wav"	"le tour"	"no"	"yes"	"filler"	NA	"no"	839	890	51	5	"yes"	"1"	"-spelling"	"40_1"
1	"A1"	2	40	21	"female"	"right"	"Other"	155	"f12_0_p4_1_mono.wav"	"le monde"	"no"	"yes"	"filler"	NA	"no"	723	1006	283	5	"yes"	"1"	"-spelling"	"40_1"
1	"A1"	2	40	21	"female"	"right"	"Other"	156	"f52_0_p2_1_mono.wav"	"le genre"	"no"	"yes"	"filler"	NA	"no"	889	1610	721	5	"yes"	"1"	"-spelling"	"40_1"
1	"A1"	2	40	21	"female"	"right"	"Other"	157	"t09_2_p2_2_mono.wav"	"le f'nouil"	"yes"	"yes"	"match"	"r"	"yes"	820	1143	323	5	"yes"	"1"	"-spelling"	"40_1"
1	"A1"	2	40	21	"female"	"right"	"Other"	158	"n82_0_p2_1_mono.wav"	"le sermite"	"no"	"no"	"filler"	NA	"no"	876	1321	445	1	"yes"	"1"	"-spelling"	"40_1"
1	"A1"	2	40	21	"female"	"right"	"Other"	159	"n10_2_p3_1_mono.wav"	"le r'got"	"no"	"no"	"filler"	"r"	"yes"	787	1523	736	1	"yes"	"1"	"-spelling"	"40_1"
1	"A1"	2	40	21	"female"	"right"	"Other"	160	"n08_2_p2_1_mono.wav"	"la s'cotte"	"no"	"no"	"filler"	"r"	"yes"	817	1839	1022	1	"yes"	"1"	"-spelling"	"40_1"
1	"A1"	2	40	21	"female"	"right"	"Other"	161	"n04_2_p4_1_mono.wav"	"la r'noise"	"no"	"no"	"filler"	"r"	"yes"	882	1518	636	1	"yes"	"1"	"-spelling"	"40_1"
1	"A1"	2	40	21	"female"	"right"	"Other"	162	"n85_2_p1_1_mono.wav"	"le s'funt"	"no"	"no"	"filler"	"r"	"yes"	778	1610	832	5	"no"	"1"	"-spelling"	"40_1"
1	"A1"	2	40	21	"female"	"right"	"Other"	163	"n55_0_p3_1_mono.wav"	"le nourd"	"no"	"no"	"filler"	NA	"no"	876	1737	861	1	"yes"	"1"	"-spelling"	"40_1"
1	"A1"	2	40	21	"female"	"right"	"Other"	164	"t19_2_p2_2_mono.wav"	"le ch'nil"	"yes"	"yes"	"match"	"r"	"yes"	928	1457	529	5	"yes"	"1"	"-spelling"	"40_1"
1	"A1"	2	40	21	"female"	"right"	"Other"	165	"f15_0_p3_1_mono.wav"	"le train"	"no"	"yes"	"filler"	NA	"no"	648	1435	787	1	"no"	"1"	"-spelling"	"40_1"
1	"A1"	2	40	21	"female"	"right"	"Other"	166	"t20_1_p3_2_mono.wav"	"le meneau"	"yes"	"yes"	"mismatch"	"u"	"yes"	629	1210	581	1	"no"	"1"	"-spelling"	"40_1"
1	"A1"	2	40	21	"female"	"right"	"Other"	167	"n07_1_p2_1_mono.wav"	"la bechesse"	"no"	"no"	"filler"	"u"	"yes"	898	1822	924	1	"yes"	"1"	"-spelling"	"40_1"
1	"A1"	2	40	21	"female"	"right"	"Other"	168	"f51_0_p3_1_mono.wav"	"le chef"	"no"	"yes"	"filler"	NA	"no"	767	1039	272	5	"yes"	"1"	"-spelling"	"40_1"
1	"A1"	2	40	21	"female"	"right"	"Other"	169	"f14_0_p2_1_mono.wav"	"le soir"	"no"	"yes"	"filler"	NA	"no"	891	2050	1159	5	"yes"	"1"	"-spelling"	"40_1"
1	"A1"	2	40	21	"female"	"right"	"Other"	170	"n83_0_p4_1_mono.wav"	"le sogueil"	"no"	"no"	"filler"	NA	"no"	915	1091	176	1	"yes"	"1"	"-spelling"	"40_1"
1	"A1"	2	40	21	"female"	"right"	"Other"	171	"n28_0_p1_1_mono.wav"	"la veure"	"no"	"no"	"filler"	NA	"no"	834	1185	351	1	"yes"	"1"	"-spelling"	"40_1"
1	"A1"	2	40	21	"female"	"right"	"Other"	172	"f43_0_p4_1_mono.wav"	"la femme"	"no"	"yes"	"filler"	NA	"no"	863	1223	360	5	"yes"	"1"	"-spelling"	"40_1"
1	"A1"	2	40	21	"female"	"right"	"Other"	173	"n54_0_p1_1_mono.wav"	"le garfait"	"no"	"no"	"filler"	NA	"no"	936	1329	393	1	"yes"	"1"	"-spelling"	"40_1"
1	"A1"	2	40	21	"female"	"right"	"Other"	174	"n68_0_p3_1_mono.wav"	"la moucle"	"no"	"no"	"filler"	NA	"no"	808	1684	876	1	"yes"	"1"	"-spelling"	"40_1"
1	"A1"	2	40	21	"female"	"right"	"Other"	175	"f06_0_p2_1_mono.wav"	"le point"	"no"	"yes"	"filler"	NA	"no"	697	1125	428	5	"yes"	"1"	"-spelling"	"40_1"
1	"A1"	2	40	21	"female"	"right"	"Other"	176	"f48_0_p3_1_mono.wav"	"la scène"	"no"	"yes"	"filler"	NA	"no"	862	1321	459	5	"yes"	"1"	"-spelling"	"40_1"
1	"A1"	2	40	21	"female"	"right"	"Other"	177	"t12_1_p4_2_mono.wav"	"le requin"	"yes"	"yes"	"mismatch"	"u"	"yes"	619	1406	787	5	"yes"	"1"	"-spelling"	"40_1"
1	"A1"	2	40	21	"female"	"right"	"Other"	178	"n84_0_p4_1_mono.wav"	"le vort"	"no"	"no"	"filler"	NA	"no"	798	1567	769	1	"yes"	"1"	"-spelling"	"40_1"
1	"A1"	2	40	21	"female"	"right"	"Other"	179	"n37_0_p4_1_mono.wav"	"le padiot"	"no"	"no"	"filler"	NA	"no"	652	1667	1015	1	"yes"	"1"	"-spelling"	"40_1"
1	"A1"	2	40	21	"female"	"right"	"Other"	180	"t17_2_p4_2_mono.wav"	"la s'moule"	"yes"	"yes"	"match"	"r"	"yes"	894	1408	514	5	"yes"	"1"	"-spelling"	"40_1"
1	"A1"	2	40	21	"female"	"right"	"Other"	181	"n95_2_p4_1_mono.wav"	"le r'pus"	"no"	"no"	"filler"	"r"	"yes"	927	2415	1488	1	"yes"	"1"	"-spelling"	"40_1"
1	"A1"	2	40	21	"female"	"right"	"Other"	182	"n92_2_p4_1_mono.wav"	"le r'gure"	"no"	"no"	"filler"	"r"	"yes"	878	1323	445	1	"yes"	"1"	"-spelling"	"40_1"
1	"A1"	2	40	21	"female"	"right"	"Other"	183	"n41_0_p2_1_mono.wav"	"l'agime"	"no"	"no"	"filler"	NA	"no"	766	1513	747	1	"yes"	"1"	"-spelling"	"40_1"
1	"A1"	2	40	21	"female"	"right"	"Other"	184	"f69_2_p2_1_mono.wav"	"le r'gistre"	"no"	"yes"	"filler"	"r"	"yes"	946	2038	1092	5	"yes"	"1"	"-spelling"	"40_1"
1	"A1"	2	40	21	"female"	"right"	"Other"	185	"f07_0_p4_1_mono.wav"	"l'année"	"no"	"yes"	"filler"	NA	"no"	683	1443	760	5	"yes"	"1"	"-spelling"	"40_1"
1	"A1"	2	40	21	"female"	"right"	"Other"	186	"n21_2_p1_1_mono.wav"	"le r'pèze"	"no"	"no"	"filler"	"r"	"yes"	831	1331	500	1	"yes"	"1"	"-spelling"	"40_1"
1	"A1"	2	40	21	"female"	"right"	"Other"	187	"f28_0_p4_1_mono.wav"	"le frère"	"no"	"yes"	"filler"	NA	"no"	938	1343	405	5	"yes"	"1"	"-spelling"	"40_1"
1	"A1"	2	40	21	"female"	"right"	"Other"	188	"f64_1_p3_1_mono.wav"	"le melon"	"no"	"yes"	"filler"	"u"	"yes"	682	1160	478	1	"no"	"1"	"-spelling"	"40_1"
1	"A1"	2	40	21	"female"	"right"	"Other"	189	"n26_0_p4_1_mono.wav"	"la jun"	"no"	"no"	"filler"	NA	"no"	568	1170	602	5	"no"	"1"	"-spelling"	"40_1"
1	"A1"	2	40	21	"female"	"right"	"Other"	190	"f68_2_p4_1_mono.wav"	"le r'tard"	"no"	"yes"	"filler"	"r"	"yes"	935	1672	737	5	"yes"	"1"	"-spelling"	"40_1"
1	"A1"	2	40	21	"female"	"right"	"Other"	191	"n15_1_p1_1_mono.wav"	"la pessade"	"no"	"no"	"filler"	"u"	"yes"	854	1257	403	1	"yes"	"1"	"-spelling"	"40_1"
1	"A1"	2	40	21	"female"	"right"	"Other"	192	"t18_1_p2_2_mono.wav"	"le reflet"	"yes"	"yes"	"mismatch"	"u"	"yes"	845	1283	438	5	"yes"	"1"	"-spelling"	"40_1"
1	"A2"	2	12	20	"female"	"right"	"Nadia"	1	"f66_2_p2_1_mono.wav"	"le d'main"	"no"	"yes"	"filler"	"r"	"yes"	671	2142	1471	1	"no"	"1"	"-spelling"	"12_1"
1	"A2"	2	12	20	"female"	"right"	"Nadia"	2	"n75_0_p2_1_mono.wav"	"le fège"	"no"	"no"	"filler"	NA	"no"	882	2495	1613	1	"yes"	"1"	"-spelling"	"12_1"
1	"A2"	2	12	20	"female"	"right"	"Nadia"	3	"f34_0_p1_1_mono.wav"	"le silence"	"no"	"yes"	"filler"	NA	"no"	931	1899	968	5	"yes"	"1"	"-spelling"	"12_1"
1	"A2"	2	12	20	"female"	"right"	"Nadia"	4	"f72_1_p1_1_mono.wav"	"la revanche"	"no"	"yes"	"filler"	"u"	"yes"	900	1599	699	5	"yes"	"1"	"-spelling"	"12_1"
1	"A2"	2	12	20	"female"	"right"	"Nadia"	5	"n29_0_p2_1_mono.wav"	"le choint"	"no"	"no"	"filler"	NA	"no"	721	1803	1082	1	"yes"	"1"	"-spelling"	"12_1"
1	"A2"	2	12	20	"female"	"right"	"Nadia"	6	"f67_1_p3_1_mono.wav"	"le refuge"	"no"	"yes"	"filler"	"u"	"yes"	888	4350	3462	5	"yes"	"1"	"-spelling"	"12_1"
1	"A2"	2	12	20	"female"	"right"	"Nadia"	7	"f32_0_p4_1_mono.wav"	"le moment"	"no"	"yes"	"filler"	NA	"no"	534	1348	814	5	"yes"	"1"	"-spelling"	"12_1"
1	"A2"	2	12	20	"female"	"right"	"Nadia"	8	"n73_0_p1_1_mono.wav"	"le buveau"	"no"	"no"	"filler"	NA	"no"	615	1461	846	1	"yes"	"1"	"-spelling"	"12_1"
1	"A2"	2	12	20	"female"	"right"	"Nadia"	9	"n03_1_p1_1_mono.wav"	"la mequisse"	"no"	"no"	"filler"	"u"	"yes"	908	1782	874	1	"yes"	"1"	"-spelling"	"12_1"
1	"A2"	2	12	20	"female"	"right"	"Nadia"	10	"f50_0_p2_1_mono.wav"	"le café"	"no"	"yes"	"filler"	NA	"no"	827	1245	418	5	"yes"	"1"	"-spelling"	"12_1"
1	"A2"	2	12	20	"female"	"right"	"Nadia"	11	"f30_0_p4_1_mono.wav"	"le garçon"	"no"	"yes"	"filler"	NA	"no"	615	1138	523	5	"yes"	"1"	"-spelling"	"12_1"
1	"A2"	2	12	20	"female"	"right"	"Nadia"	12	"n58_0_p1_1_mono.wav"	"la siture"	"no"	"no"	"filler"	NA	"no"	885	1402	517	1	"yes"	"1"	"-spelling"	"12_1"
1	"A2"	2	12	20	"female"	"right"	"Nadia"	13	"n22_2_p3_1_mono.wav"	"le r'logue"	"no"	"no"	"filler"	"r"	"yes"	818	1502	684	1	"yes"	"1"	"-spelling"	"12_1"
1	"A2"	2	12	20	"female"	"right"	"Nadia"	14	"n74_0_p1_1_mono.wav"	"le camont"	"no"	"no"	"filler"	NA	"no"	665	1384	719	1	"yes"	"1"	"-spelling"	"12_1"
1	"A2"	2	12	20	"female"	"right"	"Nadia"	15	"f61_1_p3_1_mono.wav"	"le semi"	"no"	"yes"	"filler"	"u"	"yes"	716	1500	784	1	"no"	"1"	"-spelling"	"12_1"
1	"A2"	2	12	20	"female"	"right"	"Nadia"	16	"n31_0_p1_1_mono.wav"	"l'annue"	"no"	"no"	"filler"	NA	"no"	692	2466	1774	1	"yes"	"1"	"-spelling"	"12_1"
1	"A2"	2	12	20	"female"	"right"	"Nadia"	17	"n01_2_p1_1_mono.wav"	"la b'rasse"	"no"	"no"	"filler"	"r"	"yes"	889	2283	1394	5	"no"	"1"	"-spelling"	"12_1"
1	"A2"	2	12	20	"female"	"right"	"Nadia"	18	"f62_1_p1_1_mono.wav"	"le ressort"	"no"	"yes"	"filler"	"u"	"yes"	881	2191	1310	1	"no"	"1"	"-spelling"	"12_1"
1	"A2"	2	12	20	"female"	"right"	"Nadia"	19	"n96_1_p2_1_mono.wav"	"la refare"	"no"	"no"	"filler"	"u"	"yes"	986	2246	1260	1	"yes"	"1"	"-spelling"	"12_1"
1	"A2"	2	12	20	"female"	"right"	"Nadia"	20	"n70_0_p1_1_mono.wav"	"la nale"	"no"	"no"	"filler"	NA	"no"	727	2370	1643	1	"yes"	"1"	"-spelling"	"12_1"
1	"A2"	2	12	20	"female"	"right"	"Nadia"	21	"f04_0_p2_1_mono.wav"	"la soeur"	"no"	"yes"	"filler"	NA	"no"	790	1607	817	5	"yes"	"1"	"-spelling"	"12_1"
1	"A2"	2	12	20	"female"	"right"	"Nadia"	22	"n89_1_p3_1_mono.wav"	"le rebil"	"no"	"no"	"filler"	"u"	"yes"	912	1607	695	1	"yes"	"1"	"-spelling"	"12_1"
1	"A2"	2	12	20	"female"	"right"	"Nadia"	23	"n60_0_p1_1_mono.wav"	"le tinge"	"no"	"no"	"filler"	NA	"no"	954	1606	652	1	"yes"	"1"	"-spelling"	"12_1"
1	"A2"	2	12	20	"female"	"right"	"Nadia"	24	"t22_2_p3_2_mono.wav"	"le r'nard"	"yes"	"yes"	"match"	"r"	"yes"	857	1315	458	5	"yes"	"1"	"-spelling"	"12_1"
1	"A2"	2	12	20	"female"	"right"	"Nadia"	25	"n91_2_p3_1_mono.wav"	"le r'lide"	"no"	"no"	"filler"	"r"	"yes"	861	1793	932	1	"yes"	"1"	"-spelling"	"12_1"
1	"A2"	2	12	20	"female"	"right"	"Nadia"	26	"f71_2_p1_1_mono.wav"	"le r'cord"	"no"	"yes"	"filler"	"r"	"yes"	866	1810	944	1	"no"	"1"	"-spelling"	"12_1"
1	"A2"	2	12	20	"female"	"right"	"Nadia"	27	"f03_0_p4_1_mono.wav"	"la nuit"	"no"	"yes"	"filler"	NA	"no"	735	1299	564	5	"yes"	"1"	"-spelling"	"12_1"
1	"A2"	2	12	20	"female"	"right"	"Nadia"	28	"n05_1_p4_1_mono.wav"	"le gegnoble"	"no"	"no"	"filler"	"u"	"yes"	987	1532	545	1	"yes"	"1"	"-spelling"	"12_1"
1	"A2"	2	12	20	"female"	"right"	"Nadia"	29	"n49_0_p2_1_mono.wav"	"la questier"	"no"	"no"	"filler"	NA	"no"	963	1721	758	1	"yes"	"1"	"-spelling"	"12_1"
1	"A2"	2	12	20	"female"	"right"	"Nadia"	30	"n27_0_p2_1_mono.wav"	"la tuit"	"no"	"no"	"filler"	NA	"no"	916	1986	1070	1	"yes"	"1"	"-spelling"	"12_1"
1	"A2"	2	12	20	"female"	"right"	"Nadia"	31	"n39_0_p2_1_mono.wav"	"le grat"	"no"	"no"	"filler"	NA	"no"	621	1598	977	5	"no"	"1"	"-spelling"	"12_1"
1	"A2"	2	12	20	"female"	"right"	"Nadia"	32	"f19_0_p2_1_mono.wav"	"l'idée"	"no"	"yes"	"filler"	NA	"no"	796	1189	393	1	"no"	"1"	"-spelling"	"12_1"
1	"A2"	2	12	20	"female"	"right"	"Nadia"	33	"n02_2_p2_1_mono.wav"	"la l'druche"	"no"	"no"	"filler"	"r"	"yes"	869	1668	799	1	"yes"	"1"	"-spelling"	"12_1"
1	"A2"	2	12	20	"female"	"right"	"Nadia"	34	"f41_0_p4_1_mono.wav"	"la carte"	"no"	"yes"	"filler"	NA	"no"	836	1452	616	5	"yes"	"1"	"-spelling"	"12_1"
1	"A2"	2	12	20	"female"	"right"	"Nadia"	35	"f47_0_p2_1_mono.wav"	"la route"	"no"	"yes"	"filler"	NA	"no"	797	1111	314	5	"yes"	"1"	"-spelling"	"12_1"
1	"A2"	2	12	20	"female"	"right"	"Nadia"	36	"n09_2_p1_1_mono.wav"	"le f'mmeil"	"no"	"no"	"filler"	"r"	"yes"	927	2349	1422	1	"yes"	"1"	"-spelling"	"12_1"
1	"A2"	2	12	20	"female"	"right"	"Nadia"	37	"t11_1_p3_2_mono.wav"	"le remous"	"yes"	"yes"	"mismatch"	"u"	"yes"	553	1616	1063	1	"no"	"1"	"-spelling"	"12_1"
1	"A2"	2	12	20	"female"	"right"	"Nadia"	38	"n90_2_p2_1_mono.wav"	"le d'sseau"	"no"	"no"	"filler"	"r"	"yes"	683	1392	709	1	"yes"	"1"	"-spelling"	"12_1"
1	"A2"	2	12	20	"female"	"right"	"Nadia"	39	"f01_0_p4_1_mono.wav"	"l'oncle"	"no"	"yes"	"filler"	NA	"no"	764	1935	1171	5	"yes"	"1"	"-spelling"	"12_1"
1	"A2"	2	12	20	"female"	"right"	"Nadia"	40	"f44_0_p1_1_mono.wav"	"la lettre"	"no"	"yes"	"filler"	NA	"no"	839	1340	501	5	"yes"	"1"	"-spelling"	"12_1"
1	"A2"	2	12	20	"female"	"right"	"Nadia"	41	"n33_0_p2_1_mono.wav"	"la juisse"	"no"	"no"	"filler"	NA	"no"	912	1288	376	1	"yes"	"1"	"-spelling"	"12_1"
1	"A2"	2	12	20	"female"	"right"	"Nadia"	42	"n44_0_p1_1_mono.wav"	"la fanouille"	"no"	"no"	"filler"	NA	"no"	852	3094	2242	1	"yes"	"1"	"-spelling"	"12_1"
1	"A2"	2	12	20	"female"	"right"	"Nadia"	43	"n65_0_p4_1_mono.wav"	"la murte"	"no"	"no"	"filler"	NA	"no"	894	1878	984	1	"yes"	"1"	"-spelling"	"12_1"
1	"A2"	2	12	20	"female"	"right"	"Nadia"	44	"n62_0_p4_1_mono.wav"	"l'hosor"	"no"	"no"	"filler"	NA	"no"	774	1616	842	1	"yes"	"1"	"-spelling"	"12_1"
1	"A2"	2	12	20	"female"	"right"	"Nadia"	45	"f70_1_p1_1_mono.wav"	"le semestre"	"no"	"yes"	"filler"	"u"	"yes"	947	1645	698	5	"yes"	"1"	"-spelling"	"12_1"
1	"A2"	2	12	20	"female"	"right"	"Nadia"	46	"t21_1_p1_2_mono.wav"	"le recul"	"yes"	"yes"	"mismatch"	"u"	"yes"	833	5367	4534	5	"yes"	"1"	"-spelling"	"12_1"
1	"A2"	2	12	20	"female"	"right"	"Nadia"	47	"n69_0_p1_1_mono.wav"	"la madaine"	"no"	"no"	"filler"	NA	"no"	885	1689	804	1	"yes"	"1"	"-spelling"	"12_1"
1	"A2"	2	12	20	"female"	"right"	"Nadia"	48	"f55_0_p4_1_mono.wav"	"le livre"	"no"	"yes"	"filler"	NA	"no"	872	1827	955	5	"yes"	"1"	"-spelling"	"12_1"
1	"A2"	2	12	20	"female"	"right"	"Nadia"	49	"f27_0_p1_1_mono.wav"	"le cadeau"	"no"	"yes"	"filler"	NA	"no"	604	1718	1114	5	"yes"	"1"	"-spelling"	"12_1"
1	"A2"	2	12	20	"female"	"right"	"Nadia"	50	"n50_0_p2_1_mono.wav"	"la rille"	"no"	"no"	"filler"	NA	"no"	802	1348	546	1	"yes"	"1"	"-spelling"	"12_1"
1	"A2"	2	12	20	"female"	"right"	"Nadia"	51	"f45_0_p2_1_mono.wav"	"la madame"	"no"	"yes"	"filler"	NA	"no"	767	1389	622	5	"yes"	"1"	"-spelling"	"12_1"
1	"A2"	2	12	20	"female"	"right"	"Nadia"	52	"n20_1_p1_1_mono.wav"	"le mejet"	"no"	"no"	"filler"	"u"	"yes"	793	1766	973	5	"no"	"1"	"-spelling"	"12_1"
1	"A2"	2	12	20	"female"	"right"	"Nadia"	53	"n35_0_p3_1_mono.wav"	"le missien"	"no"	"no"	"filler"	NA	"no"	721	1266	545	1	"yes"	"1"	"-spelling"	"12_1"
1	"A2"	2	12	20	"female"	"right"	"Nadia"	54	"n19_1_p3_1_mono.wav"	"le chedel"	"no"	"no"	"filler"	"u"	"yes"	870	1360	490	1	"yes"	"1"	"-spelling"	"12_1"
1	"A2"	2	12	20	"female"	"right"	"Nadia"	55	"n63_0_p1_1_mono.wav"	"la histienne"	"no"	"no"	"filler"	NA	"no"	786	2215	1429	1	"yes"	"1"	"-spelling"	"12_1"
1	"A2"	2	12	20	"female"	"right"	"Nadia"	56	"f18_0_p3_1_mono.wav"	"l'enfant"	"no"	"yes"	"filler"	NA	"no"	513	1145	632	5	"yes"	"1"	"-spelling"	"12_1"
1	"A2"	2	12	20	"female"	"right"	"Nadia"	57	"n64_0_p3_1_mono.wav"	"l'oune"	"no"	"no"	"filler"	NA	"no"	601	1426	825	5	"no"	"1"	"-spelling"	"12_1"
1	"A2"	2	12	20	"female"	"right"	"Nadia"	58	"n52_0_p2_1_mono.wav"	"le drère"	"no"	"no"	"filler"	NA	"no"	819	1202	383	1	"yes"	"1"	"-spelling"	"12_1"
1	"A2"	2	12	20	"female"	"right"	"Nadia"	59	"n11_1_p4_1_mono.wav"	"le refant"	"no"	"no"	"filler"	"u"	"yes"	700	1909	1209	1	"yes"	"1"	"-spelling"	"12_1"
1	"A2"	2	12	20	"female"	"right"	"Nadia"	60	"n61_0_p3_1_mono.wav"	"l'apure"	"no"	"no"	"filler"	NA	"no"	885	1808	923	1	"yes"	"1"	"-spelling"	"12_1"
1	"A2"	2	12	20	"female"	"right"	"Nadia"	61	"t24_2_p1_2_mono.wav"	"le f'san"	"yes"	"yes"	"match"	"r"	"yes"	573	1095	522	5	"yes"	"1"	"-spelling"	"12_1"
1	"A2"	2	12	20	"female"	"right"	"Nadia"	62	"f57_0_p2_1_mono.wav"	"le prix"	"no"	"yes"	"filler"	NA	"no"	792	1540	748	5	"yes"	"1"	"-spelling"	"12_1"
1	"A2"	2	12	20	"female"	"right"	"Nadia"	63	"f53_0_p2_1_mono.wav"	"le groupe"	"no"	"yes"	"filler"	NA	"no"	744	1844	1100	5	"yes"	"1"	"-spelling"	"12_1"
1	"A2"	2	12	20	"female"	"right"	"Nadia"	64	"n86_1_p3_1_mono.wav"	"le repire"	"no"	"no"	"filler"	"u"	"yes"	965	1411	446	1	"yes"	"1"	"-spelling"	"12_1"
1	"A2"	2	12	20	"female"	"right"	"Nadia"	65	"n76_0_p4_1_mono.wav"	"le tenre"	"no"	"no"	"filler"	NA	"no"	832	1374	542	1	"yes"	"1"	"-spelling"	"12_1"
1	"A2"	2	12	20	"female"	"right"	"Nadia"	66	"t15_1_p3_2_mono.wav"	"la pelouse"	"yes"	"yes"	"mismatch"	"u"	"yes"	1008	1829	821	1	"no"	"1"	"-spelling"	"12_1"
1	"A2"	2	12	20	"female"	"right"	"Nadia"	67	"n17_2_p4_1_mono.wav"	"la s'gence"	"no"	"no"	"filler"	"r"	"yes"	1084	3175	2091	1	"yes"	"1"	"-spelling"	"12_1"
1	"A2"	2	12	20	"female"	"right"	"Nadia"	68	"t10_2_p2_2_mono.wav"	"le r'bond"	"yes"	"yes"	"match"	"r"	"yes"	747	4855	4108	5	"yes"	"1"	"-spelling"	"12_1"
1	"A2"	2	12	20	"female"	"right"	"Nadia"	69	"n34_0_p3_1_mono.wav"	"le teau"	"no"	"no"	"filler"	NA	"no"	473	1422	949	1	"yes"	"1"	"-spelling"	"12_1"
1	"A2"	2	12	20	"female"	"right"	"Nadia"	70	"f40_0_p1_1_mono.wav"	"l'homme"	"no"	"yes"	"filler"	NA	"no"	638	1309	671	5	"yes"	"1"	"-spelling"	"12_1"
1	"A2"	2	12	20	"female"	"right"	"Nadia"	71	"f58_0_p1_1_mono.wav"	"le service"	"no"	"yes"	"filler"	NA	"no"	935	2178	1243	1	"no"	"1"	"-spelling"	"12_1"
1	"A2"	2	12	20	"female"	"right"	"Nadia"	72	"n13_1_p2_1_mono.wav"	"le seblème"	"no"	"no"	"filler"	"u"	"yes"	846	2812	1966	1	"yes"	"1"	"-spelling"	"12_1"
1	"A2"	2	12	20	"female"	"right"	"Nadia"	73	"n94_1_p2_1_mono.wav"	"le sequestre"	"no"	"no"	"filler"	"u"	"yes"	1007	1396	389	1	"yes"	"1"	"-spelling"	"12_1"
1	"A2"	2	12	20	"female"	"right"	"Nadia"	74	"n57_0_p1_1_mono.wav"	"le ratime"	"no"	"no"	"filler"	NA	"no"	859	2519	1660	1	"yes"	"1"	"-spelling"	"12_1"
1	"A2"	2	12	20	"female"	"right"	"Nadia"	75	"n77_0_p4_1_mono.wav"	"le bruc"	"no"	"no"	"filler"	NA	"no"	880	1436	556	1	"yes"	"1"	"-spelling"	"12_1"
1	"A2"	2	12	20	"female"	"right"	"Nadia"	76	"f24_0_p2_1_mono.wav"	"la maison"	"no"	"yes"	"filler"	NA	"no"	625	1699	1074	5	"yes"	"1"	"-spelling"	"12_1"
1	"A2"	2	12	20	"female"	"right"	"Nadia"	77	"n45_0_p3_1_mono.wav"	"la horgune"	"no"	"no"	"filler"	NA	"no"	731	1832	1101	1	"yes"	"1"	"-spelling"	"12_1"
1	"A2"	2	12	20	"female"	"right"	"Nadia"	78	"t04_2_p1_2_mono.wav"	"la r'liure"	"yes"	"yes"	"match"	"r"	"yes"	946	1455	509	5	"yes"	"1"	"-spelling"	"12_1"
1	"A2"	2	12	20	"female"	"right"	"Nadia"	79	"f31_0_p3_1_mono.wav"	"le jour"	"no"	"yes"	"filler"	NA	"no"	878	2046	1168	5	"yes"	"1"	"-spelling"	"12_1"
1	"A2"	2	12	20	"female"	"right"	"Nadia"	80	"n24_2_p4_1_mono.wav"	"le f'quon"	"no"	"no"	"filler"	"r"	"yes"	660	1674	1014	1	"yes"	"1"	"-spelling"	"12_1"
1	"A2"	2	12	20	"female"	"right"	"Nadia"	81	"n40_0_p3_1_mono.wav"	"l'équise"	"no"	"no"	"filler"	NA	"no"	872	1402	530	1	"yes"	"1"	"-spelling"	"12_1"
1	"A2"	2	12	20	"female"	"right"	"Nadia"	82	"n59_0_p4_1_mono.wav"	"le solti"	"no"	"no"	"filler"	NA	"no"	856	2366	1510	1	"yes"	"1"	"-spelling"	"12_1"
1	"A2"	2	12	20	"female"	"right"	"Nadia"	83	"t16_2_p2_2_mono.wav"	"la p'luche"	"yes"	"yes"	"match"	"r"	"yes"	805	1407	602	5	"yes"	"1"	"-spelling"	"12_1"
1	"A2"	2	12	20	"female"	"right"	"Nadia"	84	"f13_0_p4_1_mono.wav"	"le papier"	"no"	"yes"	"filler"	NA	"no"	977	1960	983	5	"yes"	"1"	"-spelling"	"12_1"
1	"A2"	2	12	20	"female"	"right"	"Nadia"	85	"f22_0_p3_1_mono.wav"	"la journée"	"no"	"yes"	"filler"	NA	"no"	793	1833	1040	5	"yes"	"1"	"-spelling"	"12_1"
1	"A2"	2	12	20	"female"	"right"	"Nadia"	86	"f59_0_p2_1_mono.wav"	"le soleil"	"no"	"yes"	"filler"	NA	"no"	871	1367	496	5	"yes"	"1"	"-spelling"	"12_1"
1	"A2"	2	12	20	"female"	"right"	"Nadia"	87	"f42_0_p1_1_mono.wav"	"la chance"	"no"	"yes"	"filler"	NA	"no"	807	1337	530	5	"yes"	"1"	"-spelling"	"12_1"
1	"A2"	2	12	20	"female"	"right"	"Nadia"	88	"n80_0_p2_1_mono.wav"	"le péhut"	"no"	"no"	"filler"	NA	"no"	988	2331	1343	1	"yes"	"1"	"-spelling"	"12_1"
1	"A2"	2	12	20	"female"	"right"	"Nadia"	89	"n67_0_p2_1_mono.wav"	"la janne"	"no"	"no"	"filler"	NA	"no"	765	2473	1708	1	"yes"	"1"	"-spelling"	"12_1"
1	"A2"	2	12	20	"female"	"right"	"Nadia"	90	"f54_0_p1_1_mono.wav"	"le journal"	"no"	"yes"	"filler"	NA	"no"	910	1589	679	5	"yes"	"1"	"-spelling"	"12_1"
1	"A2"	2	12	20	"female"	"right"	"Nadia"	91	"f02_0_p2_1_mono.wav"	"la main"	"no"	"yes"	"filler"	NA	"no"	540	1374	834	1	"no"	"1"	"-spelling"	"12_1"
1	"A2"	2	12	20	"female"	"right"	"Nadia"	92	"t14_2_p3_2_mono.wav"	"la ch'nille"	"yes"	"yes"	"match"	"r"	"yes"	854	1853	999	5	"yes"	"1"	"-spelling"	"12_1"
1	"A2"	2	12	20	"female"	"right"	"Nadia"	93	"n42_0_p1_1_mono.wav"	"l'endos"	"no"	"no"	"filler"	NA	"no"	588	1416	828	1	"yes"	"1"	"-spelling"	"12_1"
1	"A2"	2	12	20	"female"	"right"	"Nadia"	94	"f29_0_p3_1_mono.wav"	"le fromage"	"no"	"yes"	"filler"	NA	"no"	818	1578	760	5	"yes"	"1"	"-spelling"	"12_1"
1	"A2"	2	12	20	"female"	"right"	"Nadia"	95	"n38_0_p2_1_mono.wav"	"le suir"	"no"	"no"	"filler"	NA	"no"	855	1423	568	1	"yes"	"1"	"-spelling"	"12_1"
1	"A2"	2	12	20	"female"	"right"	"Nadia"	96	"f65_2_p1_1_mono.wav"	"le r'paire"	"no"	"yes"	"filler"	"r"	"yes"	914	4569	3655	1	"no"	"1"	"-spelling"	"12_1"
1	"A2"	2	12	20	"female"	"right"	"Nadia"	97	"f56_0_p3_1_mono.wav"	"le pays"	"no"	"yes"	"filler"	NA	"no"	738	3678	2940	5	"yes"	"1"	"-spelling"	"12_1"
1	"A2"	2	12	20	"female"	"right"	"Nadia"	98	"n06_1_p2_1_mono.wav"	"le retal"	"no"	"no"	"filler"	"u"	"yes"	907	1904	997	1	"yes"	"1"	"-spelling"	"12_1"
1	"A2"	2	12	20	"female"	"right"	"Nadia"	99	"f21_0_p1_1_mono.wav"	"la horloge"	"no"	"yes"	"filler"	NA	"no"	691	1841	1150	1	"no"	"1"	"-spelling"	"12_1"
1	"A2"	2	12	20	"female"	"right"	"Nadia"	100	"t23_1_p3_2_mono.wav"	"la secousse"	"yes"	"yes"	"mismatch"	"u"	"yes"	899	2158	1259	1	"no"	"1"	"-spelling"	"12_1"
1	"A2"	2	12	20	"female"	"right"	"Nadia"	101	"f46_0_p1_1_mono.wav"	"la part"	"no"	"yes"	"filler"	NA	"no"	851	1276	425	1	"no"	"1"	"-spelling"	"12_1"
1	"A2"	2	12	20	"female"	"right"	"Nadia"	102	"n87_1_p3_1_mono.wav"	"le chenache"	"no"	"no"	"filler"	"u"	"yes"	881	1281	400	1	"yes"	"1"	"-spelling"	"12_1"
1	"A2"	2	12	20	"female"	"right"	"Nadia"	103	"n43_0_p2_1_mono.wav"	"l'ivée"	"no"	"no"	"filler"	NA	"no"	804	2031	1227	1	"yes"	"1"	"-spelling"	"12_1"
1	"A2"	2	12	20	"female"	"right"	"Nadia"	104	"n71_0_p3_1_mono.wav"	"la foite"	"no"	"no"	"filler"	NA	"no"	994	1574	580	1	"yes"	"1"	"-spelling"	"12_1"
1	"A2"	2	12	20	"female"	"right"	"Nadia"	105	"n36_0_p1_1_mono.wav"	"le linde"	"no"	"no"	"filler"	NA	"no"	848	1613	765	1	"yes"	"1"	"-spelling"	"12_1"
1	"A2"	2	12	20	"female"	"right"	"Nadia"	106	"n78_0_p1_1_mono.wav"	"le jourlingue"	"no"	"no"	"filler"	NA	"no"	993	2218	1225	1	"yes"	"1"	"-spelling"	"12_1"
1	"A2"	2	12	20	"female"	"right"	"Nadia"	107	"f23_0_p1_1_mono.wav"	"la mère"	"no"	"yes"	"filler"	NA	"no"	902	1566	664	5	"yes"	"1"	"-spelling"	"12_1"
1	"A2"	2	12	20	"female"	"right"	"Nadia"	108	"f09_0_p2_1_mono.wav"	"la pièce"	"no"	"yes"	"filler"	NA	"no"	830	2033	1203	5	"yes"	"1"	"-spelling"	"12_1"
1	"A2"	2	12	20	"female"	"right"	"Nadia"	109	"f36_0_p1_1_mono.wav"	"le type"	"no"	"yes"	"filler"	NA	"no"	965	1613	648	1	"no"	"1"	"-spelling"	"12_1"
1	"A2"	2	12	20	"female"	"right"	"Nadia"	110	"f38_0_p3_1_mono.wav"	"l'hôtel"	"no"	"yes"	"filler"	NA	"no"	721	1287	566	5	"yes"	"1"	"-spelling"	"12_1"
1	"A2"	2	12	20	"female"	"right"	"Nadia"	111	"f20_0_p3_1_mono.wav"	"la famille"	"no"	"yes"	"filler"	NA	"no"	856	1179	323	5	"yes"	"1"	"-spelling"	"12_1"
1	"A2"	2	12	20	"female"	"right"	"Nadia"	112	"n93_2_p3_1_mono.wav"	"le r'vercle"	"no"	"no"	"filler"	"r"	"yes"	806	2979	2173	1	"yes"	"1"	"-spelling"	"12_1"
1	"A2"	2	12	20	"female"	"right"	"Nadia"	113	"f26_0_p1_1_mono.wav"	"la ville"	"no"	"yes"	"filler"	NA	"no"	741	1294	553	5	"yes"	"1"	"-spelling"	"12_1"
1	"A2"	2	12	20	"female"	"right"	"Nadia"	114	"n18_1_p3_1_mono.wav"	"le reclin"	"no"	"no"	"filler"	"u"	"yes"	888	1662	774	1	"yes"	"1"	"-spelling"	"12_1"
1	"A2"	2	12	20	"female"	"right"	"Nadia"	115	"n32_0_p1_1_mono.wav"	"l'heule"	"no"	"no"	"filler"	NA	"no"	678	1522	844	1	"yes"	"1"	"-spelling"	"12_1"
1	"A2"	2	12	20	"female"	"right"	"Nadia"	116	"t01_1_p2_2_mono.wav"	"la belette"	"yes"	"yes"	"mismatch"	"u"	"yes"	930	1875	945	1	"no"	"1"	"-spelling"	"12_1"
1	"A2"	2	12	20	"female"	"right"	"Nadia"	117	"n23_2_p1_1_mono.wav"	"la s'pave"	"no"	"no"	"filler"	"r"	"yes"	945	2648	1703	1	"yes"	"1"	"-spelling"	"12_1"
1	"A2"	2	12	20	"female"	"right"	"Nadia"	118	"t02_2_p3_2_mono.wav"	"la l'vrette"	"yes"	"yes"	"match"	"r"	"yes"	888	1237	349	5	"yes"	"1"	"-spelling"	"12_1"
1	"A2"	2	12	20	"female"	"right"	"Nadia"	119	"n30_0_p2_1_mono.wav"	"le pien"	"no"	"no"	"filler"	NA	"no"	691	2361	1670	1	"yes"	"1"	"-spelling"	"12_1"
1	"A2"	2	12	20	"female"	"right"	"Nadia"	120	"f39_0_p1_1_mono.wav"	"l'histoire"	"no"	"yes"	"filler"	NA	"no"	949	1200	251	1	"no"	"1"	"-spelling"	"12_1"
1	"A2"	2	12	20	"female"	"right"	"Nadia"	121	"t08_2_p4_2_mono.wav"	"la s'melle"	"yes"	"yes"	"match"	"r"	"yes"	879	1628	749	5	"yes"	"1"	"-spelling"	"12_1"
1	"A2"	2	12	20	"female"	"right"	"Nadia"	122	"f63_2_p4_1_mono.wav"	"le ch'val"	"no"	"yes"	"filler"	"r"	"yes"	779	2314	1535	5	"yes"	"1"	"-spelling"	"12_1"
1	"A2"	2	12	20	"female"	"right"	"Nadia"	123	"n16_2_p4_1_mono.wav"	"la p'doche"	"no"	"no"	"filler"	"r"	"yes"	875	3371	2496	1	"yes"	"1"	"-spelling"	"12_1"
1	"A2"	2	12	20	"female"	"right"	"Nadia"	124	"t07_1_p2_2_mono.wav"	"la bedaine"	"yes"	"yes"	"mismatch"	"u"	"yes"	973	2346	1373	1	"no"	"1"	"-spelling"	"12_1"
1	"A2"	2	12	20	"female"	"right"	"Nadia"	125	"f17_0_p4_1_mono.wav"	"l'accord"	"no"	"yes"	"filler"	NA	"no"	866	3498	2632	1	"no"	"1"	"-spelling"	"12_1"
1	"A2"	2	12	20	"female"	"right"	"Nadia"	126	"t13_1_p3_2_mono.wav"	"le sevrage"	"yes"	"yes"	"mismatch"	"u"	"yes"	976	1886	910	5	"yes"	"1"	"-spelling"	"12_1"
1	"A2"	2	12	20	"female"	"right"	"Nadia"	127	"f10_0_p2_1_mono.wav"	"le chat"	"no"	"yes"	"filler"	NA	"no"	582	1427	845	1	"no"	"1"	"-spelling"	"12_1"
1	"A2"	2	12	20	"female"	"right"	"Nadia"	128	"n48_0_p2_1_mono.wav"	"la mainou"	"no"	"no"	"filler"	NA	"no"	740	1774	1034	1	"yes"	"1"	"-spelling"	"12_1"
1	"A2"	2	12	20	"female"	"right"	"Nadia"	129	"f11_0_p2_1_mono.wav"	"le milieu"	"no"	"yes"	"filler"	NA	"no"	753	2447	1694	1	"no"	"1"	"-spelling"	"12_1"
1	"A2"	2	12	20	"female"	"right"	"Nadia"	130	"n46_0_p1_1_mono.wav"	"la jourcie"	"no"	"no"	"filler"	NA	"no"	930	2508	1578	1	"yes"	"1"	"-spelling"	"12_1"
1	"A2"	2	12	20	"female"	"right"	"Nadia"	131	"f37_0_p2_1_mono.wav"	"l'amour"	"no"	"yes"	"filler"	NA	"no"	839	1179	340	5	"yes"	"1"	"-spelling"	"12_1"
1	"A2"	2	12	20	"female"	"right"	"Nadia"	132	"n53_0_p1_1_mono.wav"	"le frolège"	"no"	"no"	"filler"	NA	"no"	855	2557	1702	1	"yes"	"1"	"-spelling"	"12_1"
1	"A2"	2	12	20	"female"	"right"	"Nadia"	133	"n88_1_p2_1_mono.wav"	"le messin"	"no"	"no"	"filler"	"u"	"yes"	704	1521	817	1	"yes"	"1"	"-spelling"	"12_1"
1	"A2"	2	12	20	"female"	"right"	"Nadia"	134	"n47_0_p4_1_mono.wav"	"la nure"	"no"	"no"	"filler"	NA	"no"	829	2891	2062	1	"yes"	"1"	"-spelling"	"12_1"
1	"A2"	2	12	20	"female"	"right"	"Nadia"	135	"n56_0_p3_1_mono.wav"	"le mossu"	"no"	"no"	"filler"	NA	"no"	820	1585	765	1	"yes"	"1"	"-spelling"	"12_1"
1	"A2"	2	12	20	"female"	"right"	"Nadia"	136	"t03_1_p4_2_mono.wav"	"la menotte"	"yes"	"yes"	"mismatch"	"u"	"yes"	947	3845	2898	1	"no"	"1"	"-spelling"	"12_1"
1	"A2"	2	12	20	"female"	"right"	"Nadia"	137	"n72_0_p3_1_mono.wav"	"la teune"	"no"	"no"	"filler"	NA	"no"	893	1624	731	1	"yes"	"1"	"-spelling"	"12_1"
1	"A2"	2	12	20	"female"	"right"	"Nadia"	138	"f35_0_p4_1_mono.wav"	"le soldat"	"no"	"yes"	"filler"	NA	"no"	677	1385	708	1	"no"	"1"	"-spelling"	"12_1"
1	"A2"	2	12	20	"female"	"right"	"Nadia"	139	"t06_2_p2_2_mono.wav"	"le r'cel"	"yes"	"yes"	"match"	"r"	"yes"	902	1362	460	5	"yes"	"1"	"-spelling"	"12_1"
1	"A2"	2	12	20	"female"	"right"	"Nadia"	140	"f25_0_p3_1_mono.wav"	"la question"	"no"	"yes"	"filler"	NA	"no"	728	1557	829	5	"yes"	"1"	"-spelling"	"12_1"
1	"A2"	2	12	20	"female"	"right"	"Nadia"	141	"n14_1_p1_1_mono.wav"	"la chemaille"	"no"	"no"	"filler"	"u"	"yes"	797	1491	694	1	"yes"	"1"	"-spelling"	"12_1"
1	"A2"	2	12	20	"female"	"right"	"Nadia"	142	"n79_0_p4_1_mono.wav"	"le tavre"	"no"	"no"	"filler"	NA	"no"	855	1846	991	1	"yes"	"1"	"-spelling"	"12_1"
1	"A2"	2	12	20	"female"	"right"	"Nadia"	143	"f08_0_p4_1_mono.wav"	"l'heure"	"no"	"yes"	"filler"	NA	"no"	735	1629	894	5	"yes"	"1"	"-spelling"	"12_1"
1	"A2"	2	12	20	"female"	"right"	"Nadia"	144	"f33_0_p4_1_mono.wav"	"le rapport"	"no"	"yes"	"filler"	NA	"no"	872	1780	908	1	"no"	"1"	"-spelling"	"12_1"
1	"A2"	2	12	20	"female"	"right"	"Nadia"	145	"n12_1_p1_1_mono.wav"	"le rechant"	"no"	"no"	"filler"	"u"	"yes"	686	1392	706	1	"yes"	"1"	"-spelling"	"12_1"
1	"A2"	2	12	20	"female"	"right"	"Nadia"	146	"f05_0_p2_1_mono.wav"	"le chien"	"no"	"yes"	"filler"	NA	"no"	668	1374	706	5	"yes"	"1"	"-spelling"	"12_1"
1	"A2"	2	12	20	"female"	"right"	"Nadia"	147	"f16_0_p4_1_mono.wav"	"l'école"	"no"	"yes"	"filler"	NA	"no"	771	1189	418	5	"yes"	"1"	"-spelling"	"12_1"
1	"A2"	2	12	20	"female"	"right"	"Nadia"	148	"t05_1_p2_2_mono.wav"	"le genièvre"	"yes"	"yes"	"mismatch"	"u"	"yes"	967	1898	931	5	"yes"	"1"	"-spelling"	"12_1"
1	"A2"	2	12	20	"female"	"right"	"Nadia"	149	"n25_0_p1_1_mono.wav"	"l'incre"	"no"	"no"	"filler"	NA	"no"	771	1284	513	1	"yes"	"1"	"-spelling"	"12_1"
1	"A2"	2	12	20	"female"	"right"	"Nadia"	150	"f49_0_p2_1_mono.wav"	"le bureau"	"no"	"yes"	"filler"	NA	"no"	857	1708	851	5	"yes"	"1"	"-spelling"	"12_1"
1	"A2"	2	12	20	"female"	"right"	"Nadia"	151	"n51_0_p4_1_mono.wav"	"le caffant"	"no"	"no"	"filler"	NA	"no"	644	1988	1344	1	"yes"	"1"	"-spelling"	"12_1"
1	"A2"	2	12	20	"female"	"right"	"Nadia"	152	"n81_0_p1_1_mono.wav"	"le croux"	"no"	"no"	"filler"	NA	"no"	720	1419	699	1	"yes"	"1"	"-spelling"	"12_1"
1	"A2"	2	12	20	"female"	"right"	"Nadia"	153	"n66_0_p2_1_mono.wav"	"la cance"	"no"	"no"	"filler"	NA	"no"	861	1293	432	1	"yes"	"1"	"-spelling"	"12_1"
1	"A2"	2	12	20	"female"	"right"	"Nadia"	154	"f60_0_p1_1_mono.wav"	"le tour"	"no"	"yes"	"filler"	NA	"no"	839	1391	552	1	"no"	"1"	"-spelling"	"12_1"
1	"A2"	2	12	20	"female"	"right"	"Nadia"	155	"f12_0_p4_1_mono.wav"	"le monde"	"no"	"yes"	"filler"	NA	"no"	723	1379	656	5	"yes"	"1"	"-spelling"	"12_1"
1	"A2"	2	12	20	"female"	"right"	"Nadia"	156	"f52_0_p2_1_mono.wav"	"le genre"	"no"	"yes"	"filler"	NA	"no"	889	2811	1922	5	"yes"	"1"	"-spelling"	"12_1"
1	"A2"	2	12	20	"female"	"right"	"Nadia"	157	"t09_1_p1_2_mono.wav"	"le fenouil"	"yes"	"yes"	"mismatch"	"u"	"yes"	845	1693	848	5	"yes"	"1"	"-spelling"	"12_1"
1	"A2"	2	12	20	"female"	"right"	"Nadia"	158	"n82_0_p2_1_mono.wav"	"le sermite"	"no"	"no"	"filler"	NA	"no"	876	6186	5310	1	"yes"	"1"	"-spelling"	"12_1"
1	"A2"	2	12	20	"female"	"right"	"Nadia"	159	"n10_2_p3_1_mono.wav"	"le r'got"	"no"	"no"	"filler"	"r"	"yes"	787	2507	1720	1	"yes"	"1"	"-spelling"	"12_1"
1	"A2"	2	12	20	"female"	"right"	"Nadia"	160	"n08_2_p2_1_mono.wav"	"la s'cotte"	"no"	"no"	"filler"	"r"	"yes"	817	1801	984	1	"yes"	"1"	"-spelling"	"12_1"
1	"A2"	2	12	20	"female"	"right"	"Nadia"	161	"n04_2_p4_1_mono.wav"	"la r'noise"	"no"	"no"	"filler"	"r"	"yes"	882	2206	1324	1	"yes"	"1"	"-spelling"	"12_1"
1	"A2"	2	12	20	"female"	"right"	"Nadia"	162	"n85_2_p1_1_mono.wav"	"le s'funt"	"no"	"no"	"filler"	"r"	"yes"	778	2579	1801	1	"yes"	"1"	"-spelling"	"12_1"
1	"A2"	2	12	20	"female"	"right"	"Nadia"	163	"n55_0_p3_1_mono.wav"	"le nourd"	"no"	"no"	"filler"	NA	"no"	876	2733	1857	1	"yes"	"1"	"-spelling"	"12_1"
1	"A2"	2	12	20	"female"	"right"	"Nadia"	164	"t19_1_p3_2_mono.wav"	"le chenil"	"yes"	"yes"	"mismatch"	"u"	"yes"	917	7903	6986	1	"no"	"1"	"-spelling"	"12_1"
1	"A2"	2	12	20	"female"	"right"	"Nadia"	165	"f15_0_p3_1_mono.wav"	"le train"	"no"	"yes"	"filler"	NA	"no"	648	1613	965	5	"yes"	"1"	"-spelling"	"12_1"
1	"A2"	2	12	20	"female"	"right"	"Nadia"	166	"t20_2_p3_2_mono.wav"	"le m'neau"	"yes"	"yes"	"match"	"r"	"yes"	607	1170	563	5	"yes"	"1"	"-spelling"	"12_1"
1	"A2"	2	12	20	"female"	"right"	"Nadia"	167	"n07_1_p2_1_mono.wav"	"la bechesse"	"no"	"no"	"filler"	"u"	"yes"	898	1368	470	1	"yes"	"1"	"-spelling"	"12_1"
1	"A2"	2	12	20	"female"	"right"	"Nadia"	168	"f51_0_p3_1_mono.wav"	"le chef"	"no"	"yes"	"filler"	NA	"no"	767	1376	609	5	"yes"	"1"	"-spelling"	"12_1"
1	"A2"	2	12	20	"female"	"right"	"Nadia"	169	"f14_0_p2_1_mono.wav"	"le soir"	"no"	"yes"	"filler"	NA	"no"	891	1173	282	5	"yes"	"1"	"-spelling"	"12_1"
1	"A2"	2	12	20	"female"	"right"	"Nadia"	170	"n83_0_p4_1_mono.wav"	"le sogueil"	"no"	"no"	"filler"	NA	"no"	915	1363	448	1	"yes"	"1"	"-spelling"	"12_1"
1	"A2"	2	12	20	"female"	"right"	"Nadia"	171	"n28_0_p1_1_mono.wav"	"la veure"	"no"	"no"	"filler"	NA	"no"	834	1502	668	1	"yes"	"1"	"-spelling"	"12_1"
1	"A2"	2	12	20	"female"	"right"	"Nadia"	172	"f43_0_p4_1_mono.wav"	"la femme"	"no"	"yes"	"filler"	NA	"no"	863	1181	318	5	"yes"	"1"	"-spelling"	"12_1"
1	"A2"	2	12	20	"female"	"right"	"Nadia"	173	"n54_0_p1_1_mono.wav"	"le garfait"	"no"	"no"	"filler"	NA	"no"	936	1559	623	1	"yes"	"1"	"-spelling"	"12_1"
1	"A2"	2	12	20	"female"	"right"	"Nadia"	174	"n68_0_p3_1_mono.wav"	"la moucle"	"no"	"no"	"filler"	NA	"no"	808	1560	752	1	"yes"	"1"	"-spelling"	"12_1"
1	"A2"	2	12	20	"female"	"right"	"Nadia"	175	"f06_0_p2_1_mono.wav"	"le point"	"no"	"yes"	"filler"	NA	"no"	697	1370	673	5	"yes"	"1"	"-spelling"	"12_1"
1	"A2"	2	12	20	"female"	"right"	"Nadia"	176	"f48_0_p3_1_mono.wav"	"la scène"	"no"	"yes"	"filler"	NA	"no"	862	2529	1667	1	"no"	"1"	"-spelling"	"12_1"
1	"A2"	2	12	20	"female"	"right"	"Nadia"	177	"t12_2_p4_2_mono.wav"	"le r'quin"	"yes"	"yes"	"match"	"r"	"yes"	641	5620	4979	1	"no"	"1"	"-spelling"	"12_1"
1	"A2"	2	12	20	"female"	"right"	"Nadia"	178	"n84_0_p4_1_mono.wav"	"le vort"	"no"	"no"	"filler"	NA	"no"	798	1889	1091	1	"yes"	"1"	"-spelling"	"12_1"
1	"A2"	2	12	20	"female"	"right"	"Nadia"	179	"n37_0_p4_1_mono.wav"	"le padiot"	"no"	"no"	"filler"	NA	"no"	652	1879	1227	1	"yes"	"1"	"-spelling"	"12_1"
1	"A2"	2	12	20	"female"	"right"	"Nadia"	180	"t17_1_p4_2_mono.wav"	"la semoule"	"yes"	"yes"	"mismatch"	"u"	"yes"	875	1918	1043	1	"no"	"1"	"-spelling"	"12_1"
1	"A2"	2	12	20	"female"	"right"	"Nadia"	181	"n95_2_p4_1_mono.wav"	"le r'pus"	"no"	"no"	"filler"	"r"	"yes"	927	2338	1411	1	"yes"	"1"	"-spelling"	"12_1"
1	"A2"	2	12	20	"female"	"right"	"Nadia"	182	"n92_2_p4_1_mono.wav"	"le r'gure"	"no"	"no"	"filler"	"r"	"yes"	878	1418	540	1	"yes"	"1"	"-spelling"	"12_1"
1	"A2"	2	12	20	"female"	"right"	"Nadia"	183	"n41_0_p2_1_mono.wav"	"l'agime"	"no"	"no"	"filler"	NA	"no"	766	2353	1587	1	"yes"	"1"	"-spelling"	"12_1"
1	"A2"	2	12	20	"female"	"right"	"Nadia"	184	"f69_2_p2_1_mono.wav"	"le r'gistre"	"no"	"yes"	"filler"	"r"	"yes"	946	1947	1001	5	"yes"	"1"	"-spelling"	"12_1"
1	"A2"	2	12	20	"female"	"right"	"Nadia"	185	"f07_0_p4_1_mono.wav"	"l'année"	"no"	"yes"	"filler"	NA	"no"	683	2637	1954	1	"no"	"1"	"-spelling"	"12_1"
1	"A2"	2	12	20	"female"	"right"	"Nadia"	186	"n21_2_p1_1_mono.wav"	"le r'pèze"	"no"	"no"	"filler"	"r"	"yes"	831	1783	952	1	"yes"	"1"	"-spelling"	"12_1"
1	"A2"	2	12	20	"female"	"right"	"Nadia"	187	"f28_0_p4_1_mono.wav"	"le frère"	"no"	"yes"	"filler"	NA	"no"	938	1411	473	5	"yes"	"1"	"-spelling"	"12_1"
1	"A2"	2	12	20	"female"	"right"	"Nadia"	188	"f64_1_p3_1_mono.wav"	"le melon"	"no"	"yes"	"filler"	"u"	"yes"	682	1616	934	1	"no"	"1"	"-spelling"	"12_1"
1	"A2"	2	12	20	"female"	"right"	"Nadia"	189	"n26_0_p4_1_mono.wav"	"la jun"	"no"	"no"	"filler"	NA	"no"	568	1787	1219	5	"no"	"1"	"-spelling"	"12_1"
1	"A2"	2	12	20	"female"	"right"	"Nadia"	190	"f68_2_p4_1_mono.wav"	"le r'tard"	"no"	"yes"	"filler"	"r"	"yes"	935	1492	557	1	"no"	"1"	"-spelling"	"12_1"
1	"A2"	2	12	20	"female"	"right"	"Nadia"	191	"n15_1_p1_1_mono.wav"	"la pessade"	"no"	"no"	"filler"	"u"	"yes"	854	1572	718	1	"yes"	"1"	"-spelling"	"12_1"
1	"A2"	2	12	20	"female"	"right"	"Nadia"	192	"t18_2_p3_2_mono.wav"	"le r'flet"	"yes"	"yes"	"match"	"r"	"yes"	859	1407	548	5	"yes"	"1"	"-spelling"	"12_1"
1	"A2"	2	20	19	"female"	"right"	"Jens"	1	"f66_2_p2_1_mono.wav"	"le d'main"	"no"	"yes"	"filler"	"r"	"yes"	671	1357	686	1	"no"	"1"	"-spelling"	"20_1"
1	"A2"	2	20	19	"female"	"right"	"Jens"	2	"n75_0_p2_1_mono.wav"	"le fège"	"no"	"no"	"filler"	NA	"no"	882	1139	257	1	"yes"	"1"	"-spelling"	"20_1"
1	"A2"	2	20	19	"female"	"right"	"Jens"	3	"f34_0_p1_1_mono.wav"	"le silence"	"no"	"yes"	"filler"	NA	"no"	931	1661	730	5	"yes"	"1"	"-spelling"	"20_1"
1	"A2"	2	20	19	"female"	"right"	"Jens"	4	"f72_1_p1_1_mono.wav"	"la revanche"	"no"	"yes"	"filler"	"u"	"yes"	900	1674	774	5	"yes"	"1"	"-spelling"	"20_1"
1	"A2"	2	20	19	"female"	"right"	"Jens"	5	"n29_0_p2_1_mono.wav"	"le choint"	"no"	"no"	"filler"	NA	"no"	721	1679	958	1	"yes"	"1"	"-spelling"	"20_1"
1	"A2"	2	20	19	"female"	"right"	"Jens"	6	"f67_1_p3_1_mono.wav"	"le refuge"	"no"	"yes"	"filler"	"u"	"yes"	888	1853	965	5	"yes"	"1"	"-spelling"	"20_1"
1	"A2"	2	20	19	"female"	"right"	"Jens"	7	"f32_0_p4_1_mono.wav"	"le moment"	"no"	"yes"	"filler"	NA	"no"	534	1155	621	5	"yes"	"1"	"-spelling"	"20_1"
1	"A2"	2	20	19	"female"	"right"	"Jens"	8	"n73_0_p1_1_mono.wav"	"le buveau"	"no"	"no"	"filler"	NA	"no"	615	950	335	1	"yes"	"1"	"-spelling"	"20_1"
1	"A2"	2	20	19	"female"	"right"	"Jens"	9	"n03_1_p1_1_mono.wav"	"la mequisse"	"no"	"no"	"filler"	"u"	"yes"	908	1108	200	1	"yes"	"1"	"-spelling"	"20_1"
1	"A2"	2	20	19	"female"	"right"	"Jens"	10	"f50_0_p2_1_mono.wav"	"le café"	"no"	"yes"	"filler"	NA	"no"	827	939	112	5	"yes"	"1"	"-spelling"	"20_1"
1	"A2"	2	20	19	"female"	"right"	"Jens"	11	"f30_0_p4_1_mono.wav"	"le garçon"	"no"	"yes"	"filler"	NA	"no"	615	1084	469	5	"yes"	"1"	"-spelling"	"20_1"
1	"A2"	2	20	19	"female"	"right"	"Jens"	12	"n58_0_p1_1_mono.wav"	"la siture"	"no"	"no"	"filler"	NA	"no"	885	1824	939	1	"yes"	"1"	"-spelling"	"20_1"
1	"A2"	2	20	19	"female"	"right"	"Jens"	13	"n22_2_p3_1_mono.wav"	"le r'logue"	"no"	"no"	"filler"	"r"	"yes"	818	1321	503	5	"no"	"1"	"-spelling"	"20_1"
1	"A2"	2	20	19	"female"	"right"	"Jens"	14	"n74_0_p1_1_mono.wav"	"le camont"	"no"	"no"	"filler"	NA	"no"	665	1457	792	1	"yes"	"1"	"-spelling"	"20_1"
1	"A2"	2	20	19	"female"	"right"	"Jens"	15	"f61_1_p3_1_mono.wav"	"le semi"	"no"	"yes"	"filler"	"u"	"yes"	716	2550	1834	5	"yes"	"1"	"-spelling"	"20_1"
1	"A2"	2	20	19	"female"	"right"	"Jens"	16	"n31_0_p1_1_mono.wav"	"l'annue"	"no"	"no"	"filler"	NA	"no"	692	2353	1661	1	"yes"	"1"	"-spelling"	"20_1"
1	"A2"	2	20	19	"female"	"right"	"Jens"	17	"n01_2_p1_1_mono.wav"	"la b'rasse"	"no"	"no"	"filler"	"r"	"yes"	889	1684	795	1	"yes"	"1"	"-spelling"	"20_1"
1	"A2"	2	20	19	"female"	"right"	"Jens"	18	"f62_1_p1_1_mono.wav"	"le ressort"	"no"	"yes"	"filler"	"u"	"yes"	881	2117	1236	1	"no"	"1"	"-spelling"	"20_1"
1	"A2"	2	20	19	"female"	"right"	"Jens"	19	"n96_1_p2_1_mono.wav"	"la refare"	"no"	"no"	"filler"	"u"	"yes"	986	1606	620	1	"yes"	"1"	"-spelling"	"20_1"
1	"A2"	2	20	19	"female"	"right"	"Jens"	20	"n70_0_p1_1_mono.wav"	"la nale"	"no"	"no"	"filler"	NA	"no"	727	1393	666	1	"yes"	"1"	"-spelling"	"20_1"
1	"A2"	2	20	19	"female"	"right"	"Jens"	21	"f04_0_p2_1_mono.wav"	"la soeur"	"no"	"yes"	"filler"	NA	"no"	790	1045	255	5	"yes"	"1"	"-spelling"	"20_1"
1	"A2"	2	20	19	"female"	"right"	"Jens"	22	"n89_1_p3_1_mono.wav"	"le rebil"	"no"	"no"	"filler"	"u"	"yes"	912	1394	482	1	"yes"	"1"	"-spelling"	"20_1"
1	"A2"	2	20	19	"female"	"right"	"Jens"	23	"n60_0_p1_1_mono.wav"	"le tinge"	"no"	"no"	"filler"	NA	"no"	954	1519	565	5	"no"	"1"	"-spelling"	"20_1"
1	"A2"	2	20	19	"female"	"right"	"Jens"	24	"t22_2_p3_2_mono.wav"	"le r'nard"	"yes"	"yes"	"match"	"r"	"yes"	857	1293	436	5	"yes"	"1"	"-spelling"	"20_1"
1	"A2"	2	20	19	"female"	"right"	"Jens"	25	"n91_2_p3_1_mono.wav"	"le r'lide"	"no"	"no"	"filler"	"r"	"yes"	861	1169	308	1	"yes"	"1"	"-spelling"	"20_1"
1	"A2"	2	20	19	"female"	"right"	"Jens"	26	"f71_2_p1_1_mono.wav"	"le r'cord"	"no"	"yes"	"filler"	"r"	"yes"	866	1646	780	1	"no"	"1"	"-spelling"	"20_1"
1	"A2"	2	20	19	"female"	"right"	"Jens"	27	"f03_0_p4_1_mono.wav"	"la nuit"	"no"	"yes"	"filler"	NA	"no"	735	1378	643	1	"no"	"1"	"-spelling"	"20_1"
1	"A2"	2	20	19	"female"	"right"	"Jens"	28	"n05_1_p4_1_mono.wav"	"le gegnoble"	"no"	"no"	"filler"	"u"	"yes"	987	1459	472	1	"yes"	"1"	"-spelling"	"20_1"
1	"A2"	2	20	19	"female"	"right"	"Jens"	29	"n49_0_p2_1_mono.wav"	"la questier"	"no"	"no"	"filler"	NA	"no"	963	1739	776	1	"yes"	"1"	"-spelling"	"20_1"
1	"A2"	2	20	19	"female"	"right"	"Jens"	30	"n27_0_p2_1_mono.wav"	"la tuit"	"no"	"no"	"filler"	NA	"no"	916	1335	419	1	"yes"	"1"	"-spelling"	"20_1"
1	"A2"	2	20	19	"female"	"right"	"Jens"	31	"n39_0_p2_1_mono.wav"	"le grat"	"no"	"no"	"filler"	NA	"no"	621	1072	451	1	"yes"	"1"	"-spelling"	"20_1"
1	"A2"	2	20	19	"female"	"right"	"Jens"	32	"f19_0_p2_1_mono.wav"	"l'idée"	"no"	"yes"	"filler"	NA	"no"	796	1283	487	5	"yes"	"1"	"-spelling"	"20_1"
1	"A2"	2	20	19	"female"	"right"	"Jens"	33	"n02_2_p2_1_mono.wav"	"la l'druche"	"no"	"no"	"filler"	"r"	"yes"	869	1096	227	1	"yes"	"1"	"-spelling"	"20_1"
1	"A2"	2	20	19	"female"	"right"	"Jens"	34	"f41_0_p4_1_mono.wav"	"la carte"	"no"	"yes"	"filler"	NA	"no"	836	1021	185	5	"yes"	"1"	"-spelling"	"20_1"
1	"A2"	2	20	19	"female"	"right"	"Jens"	35	"f47_0_p2_1_mono.wav"	"la route"	"no"	"yes"	"filler"	NA	"no"	797	1619	822	5	"yes"	"1"	"-spelling"	"20_1"
1	"A2"	2	20	19	"female"	"right"	"Jens"	36	"n09_2_p1_1_mono.wav"	"le f'mmeil"	"no"	"no"	"filler"	"r"	"yes"	927	1331	404	1	"yes"	"1"	"-spelling"	"20_1"
1	"A2"	2	20	19	"female"	"right"	"Jens"	37	"t11_1_p3_2_mono.wav"	"le remous"	"yes"	"yes"	"mismatch"	"u"	"yes"	553	1491	938	5	"yes"	"1"	"-spelling"	"20_1"
1	"A2"	2	20	19	"female"	"right"	"Jens"	38	"n90_2_p2_1_mono.wav"	"le d'sseau"	"no"	"no"	"filler"	"r"	"yes"	683	1113	430	1	"yes"	"1"	"-spelling"	"20_1"
1	"A2"	2	20	19	"female"	"right"	"Jens"	39	"f01_0_p4_1_mono.wav"	"l'oncle"	"no"	"yes"	"filler"	NA	"no"	764	1581	817	5	"yes"	"1"	"-spelling"	"20_1"
1	"A2"	2	20	19	"female"	"right"	"Jens"	40	"f44_0_p1_1_mono.wav"	"la lettre"	"no"	"yes"	"filler"	NA	"no"	839	1022	183	5	"yes"	"1"	"-spelling"	"20_1"
1	"A2"	2	20	19	"female"	"right"	"Jens"	41	"n33_0_p2_1_mono.wav"	"la juisse"	"no"	"no"	"filler"	NA	"no"	912	1121	209	1	"yes"	"1"	"-spelling"	"20_1"
1	"A2"	2	20	19	"female"	"right"	"Jens"	42	"n44_0_p1_1_mono.wav"	"la fanouille"	"no"	"no"	"filler"	NA	"no"	852	1473	621	1	"yes"	"1"	"-spelling"	"20_1"
1	"A2"	2	20	19	"female"	"right"	"Jens"	43	"n65_0_p4_1_mono.wav"	"la murte"	"no"	"no"	"filler"	NA	"no"	894	1416	522	1	"yes"	"1"	"-spelling"	"20_1"
1	"A2"	2	20	19	"female"	"right"	"Jens"	44	"n62_0_p4_1_mono.wav"	"l'hosor"	"no"	"no"	"filler"	NA	"no"	774	1032	258	1	"yes"	"1"	"-spelling"	"20_1"
1	"A2"	2	20	19	"female"	"right"	"Jens"	45	"f70_1_p1_1_mono.wav"	"le semestre"	"no"	"yes"	"filler"	"u"	"yes"	947	1169	222	5	"yes"	"1"	"-spelling"	"20_1"
1	"A2"	2	20	19	"female"	"right"	"Jens"	46	"t21_1_p1_2_mono.wav"	"le recul"	"yes"	"yes"	"mismatch"	"u"	"yes"	833	1031	198	1	"no"	"1"	"-spelling"	"20_1"
1	"A2"	2	20	19	"female"	"right"	"Jens"	47	"n69_0_p1_1_mono.wav"	"la madaine"	"no"	"no"	"filler"	NA	"no"	885	1517	632	1	"yes"	"1"	"-spelling"	"20_1"
1	"A2"	2	20	19	"female"	"right"	"Jens"	48	"f55_0_p4_1_mono.wav"	"le livre"	"no"	"yes"	"filler"	NA	"no"	872	1767	895	5	"yes"	"1"	"-spelling"	"20_1"
1	"A2"	2	20	19	"female"	"right"	"Jens"	49	"f27_0_p1_1_mono.wav"	"le cadeau"	"no"	"yes"	"filler"	NA	"no"	604	1026	422	5	"yes"	"1"	"-spelling"	"20_1"
1	"A2"	2	20	19	"female"	"right"	"Jens"	50	"n50_0_p2_1_mono.wav"	"la rille"	"no"	"no"	"filler"	NA	"no"	802	1041	239	1	"yes"	"1"	"-spelling"	"20_1"
1	"A2"	2	20	19	"female"	"right"	"Jens"	51	"f45_0_p2_1_mono.wav"	"la madame"	"no"	"yes"	"filler"	NA	"no"	767	922	155	5	"yes"	"1"	"-spelling"	"20_1"
1	"A2"	2	20	19	"female"	"right"	"Jens"	52	"n20_1_p1_1_mono.wav"	"le mejet"	"no"	"no"	"filler"	"u"	"yes"	793	908	115	1	"yes"	"1"	"-spelling"	"20_1"
1	"A2"	2	20	19	"female"	"right"	"Jens"	53	"n35_0_p3_1_mono.wav"	"le missien"	"no"	"no"	"filler"	NA	"no"	721	932	211	1	"yes"	"1"	"-spelling"	"20_1"
1	"A2"	2	20	19	"female"	"right"	"Jens"	54	"n19_1_p3_1_mono.wav"	"le chedel"	"no"	"no"	"filler"	"u"	"yes"	870	1031	161	1	"yes"	"1"	"-spelling"	"20_1"
1	"A2"	2	20	19	"female"	"right"	"Jens"	55	"n63_0_p1_1_mono.wav"	"la histienne"	"no"	"no"	"filler"	NA	"no"	786	2464	1678	5	"no"	"1"	"-spelling"	"20_1"
1	"A2"	2	20	19	"female"	"right"	"Jens"	56	"f18_0_p3_1_mono.wav"	"l'enfant"	"no"	"yes"	"filler"	NA	"no"	513	991	478	5	"yes"	"1"	"-spelling"	"20_1"
1	"A2"	2	20	19	"female"	"right"	"Jens"	57	"n64_0_p3_1_mono.wav"	"l'oune"	"no"	"no"	"filler"	NA	"no"	601	1249	648	5	"no"	"1"	"-spelling"	"20_1"
1	"A2"	2	20	19	"female"	"right"	"Jens"	58	"n52_0_p2_1_mono.wav"	"le drère"	"no"	"no"	"filler"	NA	"no"	819	1166	347	1	"yes"	"1"	"-spelling"	"20_1"
1	"A2"	2	20	19	"female"	"right"	"Jens"	59	"n11_1_p4_1_mono.wav"	"le refant"	"no"	"no"	"filler"	"u"	"yes"	700	1776	1076	1	"yes"	"1"	"-spelling"	"20_1"
1	"A2"	2	20	19	"female"	"right"	"Jens"	60	"n61_0_p3_1_mono.wav"	"l'apure"	"no"	"no"	"filler"	NA	"no"	885	1356	471	1	"yes"	"1"	"-spelling"	"20_1"
1	"A2"	2	20	19	"female"	"right"	"Jens"	61	"t24_2_p1_2_mono.wav"	"le f'san"	"yes"	"yes"	"match"	"r"	"yes"	573	1046	473	5	"yes"	"1"	"-spelling"	"20_1"
1	"A2"	2	20	19	"female"	"right"	"Jens"	62	"f57_0_p2_1_mono.wav"	"le prix"	"no"	"yes"	"filler"	NA	"no"	792	1139	347	5	"yes"	"1"	"-spelling"	"20_1"
1	"A2"	2	20	19	"female"	"right"	"Jens"	63	"f53_0_p2_1_mono.wav"	"le groupe"	"no"	"yes"	"filler"	NA	"no"	744	1153	409	5	"yes"	"1"	"-spelling"	"20_1"
1	"A2"	2	20	19	"female"	"right"	"Jens"	64	"n86_1_p3_1_mono.wav"	"le repire"	"no"	"no"	"filler"	"u"	"yes"	965	1248	283	1	"yes"	"1"	"-spelling"	"20_1"
1	"A2"	2	20	19	"female"	"right"	"Jens"	65	"n76_0_p4_1_mono.wav"	"le tenre"	"no"	"no"	"filler"	NA	"no"	832	1558	726	1	"yes"	"1"	"-spelling"	"20_1"
1	"A2"	2	20	19	"female"	"right"	"Jens"	66	"t15_1_p3_2_mono.wav"	"la pelouse"	"yes"	"yes"	"mismatch"	"u"	"yes"	1008	1311	303	1	"no"	"1"	"-spelling"	"20_1"
1	"A2"	2	20	19	"female"	"right"	"Jens"	67	"n17_2_p4_1_mono.wav"	"la s'gence"	"no"	"no"	"filler"	"r"	"yes"	1084	1293	209	5	"no"	"1"	"-spelling"	"20_1"
1	"A2"	2	20	19	"female"	"right"	"Jens"	68	"t10_2_p2_2_mono.wav"	"le r'bond"	"yes"	"yes"	"match"	"r"	"yes"	747	1426	679	1	"no"	"1"	"-spelling"	"20_1"
1	"A2"	2	20	19	"female"	"right"	"Jens"	69	"n34_0_p3_1_mono.wav"	"le teau"	"no"	"no"	"filler"	NA	"no"	473	1416	943	1	"yes"	"1"	"-spelling"	"20_1"
1	"A2"	2	20	19	"female"	"right"	"Jens"	70	"f40_0_p1_1_mono.wav"	"l'homme"	"no"	"yes"	"filler"	NA	"no"	638	1055	417	5	"yes"	"1"	"-spelling"	"20_1"
1	"A2"	2	20	19	"female"	"right"	"Jens"	71	"f58_0_p1_1_mono.wav"	"le service"	"no"	"yes"	"filler"	NA	"no"	935	1210	275	5	"yes"	"1"	"-spelling"	"20_1"
1	"A2"	2	20	19	"female"	"right"	"Jens"	72	"n13_1_p2_1_mono.wav"	"le seblème"	"no"	"no"	"filler"	"u"	"yes"	846	1024	178	1	"yes"	"1"	"-spelling"	"20_1"
1	"A2"	2	20	19	"female"	"right"	"Jens"	73	"n94_1_p2_1_mono.wav"	"le sequestre"	"no"	"no"	"filler"	"u"	"yes"	1007	1522	515	1	"yes"	"1"	"-spelling"	"20_1"
1	"A2"	2	20	19	"female"	"right"	"Jens"	74	"n57_0_p1_1_mono.wav"	"le ratime"	"no"	"no"	"filler"	NA	"no"	859	1491	632	1	"yes"	"1"	"-spelling"	"20_1"
1	"A2"	2	20	19	"female"	"right"	"Jens"	75	"n77_0_p4_1_mono.wav"	"le bruc"	"no"	"no"	"filler"	NA	"no"	880	1535	655	1	"yes"	"1"	"-spelling"	"20_1"
1	"A2"	2	20	19	"female"	"right"	"Jens"	76	"f24_0_p2_1_mono.wav"	"la maison"	"no"	"yes"	"filler"	NA	"no"	625	1066	441	5	"yes"	"1"	"-spelling"	"20_1"
1	"A2"	2	20	19	"female"	"right"	"Jens"	77	"n45_0_p3_1_mono.wav"	"la horgune"	"no"	"no"	"filler"	NA	"no"	731	1086	355	1	"yes"	"1"	"-spelling"	"20_1"
1	"A2"	2	20	19	"female"	"right"	"Jens"	78	"t04_2_p1_2_mono.wav"	"la r'liure"	"yes"	"yes"	"match"	"r"	"yes"	946	1527	581	5	"yes"	"1"	"-spelling"	"20_1"
1	"A2"	2	20	19	"female"	"right"	"Jens"	79	"f31_0_p3_1_mono.wav"	"le jour"	"no"	"yes"	"filler"	NA	"no"	878	1578	700	5	"yes"	"1"	"-spelling"	"20_1"
1	"A2"	2	20	19	"female"	"right"	"Jens"	80	"n24_2_p4_1_mono.wav"	"le f'quon"	"no"	"no"	"filler"	"r"	"yes"	660	1427	767	1	"yes"	"1"	"-spelling"	"20_1"
1	"A2"	2	20	19	"female"	"right"	"Jens"	81	"n40_0_p3_1_mono.wav"	"l'équise"	"no"	"no"	"filler"	NA	"no"	872	1186	314	1	"yes"	"1"	"-spelling"	"20_1"
1	"A2"	2	20	19	"female"	"right"	"Jens"	82	"n59_0_p4_1_mono.wav"	"le solti"	"no"	"no"	"filler"	NA	"no"	856	1141	285	1	"yes"	"1"	"-spelling"	"20_1"
1	"A2"	2	20	19	"female"	"right"	"Jens"	83	"t16_2_p2_2_mono.wav"	"la p'luche"	"yes"	"yes"	"match"	"r"	"yes"	805	713	-92	5	"yes"	"1"	"-spelling"	"20_1"
1	"A2"	2	20	19	"female"	"right"	"Jens"	84	"f13_0_p4_1_mono.wav"	"le papier"	"no"	"yes"	"filler"	NA	"no"	977	1348	371	5	"yes"	"1"	"-spelling"	"20_1"
1	"A2"	2	20	19	"female"	"right"	"Jens"	85	"f22_0_p3_1_mono.wav"	"la journée"	"no"	"yes"	"filler"	NA	"no"	793	1043	250	5	"yes"	"1"	"-spelling"	"20_1"
1	"A2"	2	20	19	"female"	"right"	"Jens"	86	"f59_0_p2_1_mono.wav"	"le soleil"	"no"	"yes"	"filler"	NA	"no"	871	933	62	5	"yes"	"1"	"-spelling"	"20_1"
1	"A2"	2	20	19	"female"	"right"	"Jens"	87	"f42_0_p1_1_mono.wav"	"la chance"	"no"	"yes"	"filler"	NA	"no"	807	949	142	5	"yes"	"1"	"-spelling"	"20_1"
1	"A2"	2	20	19	"female"	"right"	"Jens"	88	"n80_0_p2_1_mono.wav"	"le péhut"	"no"	"no"	"filler"	NA	"no"	988	1094	106	1	"yes"	"1"	"-spelling"	"20_1"
1	"A2"	2	20	19	"female"	"right"	"Jens"	89	"n67_0_p2_1_mono.wav"	"la janne"	"no"	"no"	"filler"	NA	"no"	765	1209	444	5	"no"	"1"	"-spelling"	"20_1"
1	"A2"	2	20	19	"female"	"right"	"Jens"	90	"f54_0_p1_1_mono.wav"	"le journal"	"no"	"yes"	"filler"	NA	"no"	910	1037	127	5	"yes"	"1"	"-spelling"	"20_1"
1	"A2"	2	20	19	"female"	"right"	"Jens"	91	"f02_0_p2_1_mono.wav"	"la main"	"no"	"yes"	"filler"	NA	"no"	540	1123	583	1	"no"	"1"	"-spelling"	"20_1"
1	"A2"	2	20	19	"female"	"right"	"Jens"	92	"t14_2_p3_2_mono.wav"	"la ch'nille"	"yes"	"yes"	"match"	"r"	"yes"	854	1070	216	5	"yes"	"1"	"-spelling"	"20_1"
1	"A2"	2	20	19	"female"	"right"	"Jens"	93	"n42_0_p1_1_mono.wav"	"l'endos"	"no"	"no"	"filler"	NA	"no"	588	1051	463	1	"yes"	"1"	"-spelling"	"20_1"
1	"A2"	2	20	19	"female"	"right"	"Jens"	94	"f29_0_p3_1_mono.wav"	"le fromage"	"no"	"yes"	"filler"	NA	"no"	818	1231	413	5	"yes"	"1"	"-spelling"	"20_1"
1	"A2"	2	20	19	"female"	"right"	"Jens"	95	"n38_0_p2_1_mono.wav"	"le suir"	"no"	"no"	"filler"	NA	"no"	855	1083	228	1	"yes"	"1"	"-spelling"	"20_1"
