"subject_oexp"	"Subject"	"Age"	"Handedness"	"ResearcherID"	"SessionTime"	"Sex"	"Block"	"CorrectLeft"	"CorrectRight"	"Stimulus.CRESP"	"Stimulus.RESP"	"Stimulus.ACC"	"Stimulus.RT"	"Stimulus8"	"oexperiment"	"spelling"	"group"
"10_1"	10	20	"right"	"Ilse"	"12:27:11"	"male"	6	1	5	5	5	1	988	"semonce"	"1"	"-spelling"	2
"10_1"	10	20	"right"	"Ilse"	"12:27:11"	"male"	5	5	1	1	1	1	916	"huif"	"1"	"-spelling"	2
"10_1"	10	20	"right"	"Ilse"	"12:27:11"	"male"	1	1	5	5	5	1	2353	"cheveux"	"1"	"-spelling"	2
"10_1"	10	20	"right"	"Ilse"	"12:27:11"	"male"	18	5	1	1	5	0	992	"jamain"	"1"	"-spelling"	2
"10_1"	10	20	"right"	"Ilse"	"12:27:11"	"male"	19	1	5	5	1	0	1890	"ennemi"	"1"	"-spelling"	2
"10_1"	10	20	"right"	"Ilse"	"12:27:11"	"male"	20	1	5	5	5	1	1354	"pouce"	"1"	"-spelling"	2
"10_1"	10	20	"right"	"Ilse"	"12:27:11"	"male"	17	5	1	1	5	0	1276	"endifier"	"1"	"-spelling"	2
"10_1"	10	20	"right"	"Ilse"	"12:27:11"	"male"	22	1	5	5	1	0	1992	"fosse"	"1"	"-spelling"	2
"10_1"	10	20	"right"	"Ilse"	"12:27:11"	"male"	23	1	5	5	5	1	1302	"inciter"	"1"	"-spelling"	2
"10_1"	10	20	"right"	"Ilse"	"12:27:11"	"male"	24	1	5	5	5	1	1575	"salière"	"1"	"-spelling"	2
"10_1"	10	20	"right"	"Ilse"	"12:27:11"	"male"	21	5	1	1	1	1	804	"metter"	"1"	"-spelling"	2
"10_1"	10	20	"right"	"Ilse"	"12:27:11"	"male"	26	5	1	1	5	0	2724	"cessure"	"1"	"-spelling"	2
"10_1"	10	20	"right"	"Ilse"	"12:27:11"	"male"	2	5	1	1	1	1	1520	"soumon"	"1"	"-spelling"	2
"10_1"	10	20	"right"	"Ilse"	"12:27:11"	"male"	3	1	5	5	1	0	2001	"cloche"	"1"	"-spelling"	2
"10_1"	10	20	"right"	"Ilse"	"12:27:11"	"male"	4	1	5	5	5	1	2386	"fascine"	"1"	"-spelling"	2
"10_1"	10	20	"right"	"Ilse"	"12:27:11"	"male"	30	1	5	5	5	1	1453	"lézard"	"1"	"-spelling"	2
"10_1"	10	20	"right"	"Ilse"	"12:27:11"	"male"	31	5	1	1	1	1	6356	"sacher"	"1"	"-spelling"	2
"10_1"	10	20	"right"	"Ilse"	"12:27:11"	"male"	32	1	5	5	5	1	2517	"nouer"	"1"	"-spelling"	2
"10_1"	10	20	"right"	"Ilse"	"12:27:11"	"male"	33	1	5	5	5	1	1747	"occire"	"1"	"-spelling"	2
"10_1"	10	20	"right"	"Ilse"	"12:27:11"	"male"	34	5	1	1	5	0	1388	"écouce"	"1"	"-spelling"	2
"10_1"	10	20	"right"	"Ilse"	"12:27:11"	"male"	35	5	1	1	5	0	5299	"osseaux"	"1"	"-spelling"	2
"10_1"	10	20	"right"	"Ilse"	"12:27:11"	"male"	36	5	1	1	5	0	2499	"rejoute"	"1"	"-spelling"	2
"10_1"	10	20	"right"	"Ilse"	"12:27:11"	"male"	37	1	5	5	1	0	757	"escroc"	"1"	"-spelling"	2
"10_1"	10	20	"right"	"Ilse"	"12:27:11"	"male"	25	1	5	5	5	1	2285	"fouet"	"1"	"-spelling"	2
"10_1"	10	20	"right"	"Ilse"	"12:27:11"	"male"	38	1	5	5	5	1	1002	"hache"	"1"	"-spelling"	2
"10_1"	10	20	"right"	"Ilse"	"12:27:11"	"male"	27	1	5	5	5	1	1721	"clouer"	"1"	"-spelling"	2
"10_1"	10	20	"right"	"Ilse"	"12:27:11"	"male"	28	1	5	5	1	0	2628	"mappemonde"	"1"	"-spelling"	2
"10_1"	10	20	"right"	"Ilse"	"12:27:11"	"male"	16	5	1	1	5	0	1133	"cerveler"	"1"	"-spelling"	2
"10_1"	10	20	"right"	"Ilse"	"12:27:11"	"male"	42	1	5	5	1	0	1302	"robinet"	"1"	"-spelling"	2
"10_1"	10	20	"right"	"Ilse"	"12:27:11"	"male"	43	1	5	5	1	0	2687	"amadouer"	"1"	"-spelling"	2
"10_1"	10	20	"right"	"Ilse"	"12:27:11"	"male"	44	1	5	5	5	1	1718	"peigne"	"1"	"-spelling"	2
"10_1"	10	20	"right"	"Ilse"	"12:27:11"	"male"	45	5	1	1	5	0	2207	"retruire"	"1"	"-spelling"	2
"10_1"	10	20	"right"	"Ilse"	"12:27:11"	"male"	7	1	5	5	1	0	1007	"canoter "	"1"	"-spelling"	2
"10_1"	10	20	"right"	"Ilse"	"12:27:11"	"male"	8	1	5	5	5	1	1059	"infâme"	"1"	"-spelling"	2
"10_1"	10	20	"right"	"Ilse"	"12:27:11"	"male"	9	1	5	5	5	1	1147	"fourmi"	"1"	"-spelling"	2
"10_1"	10	20	"right"	"Ilse"	"12:27:11"	"male"	10	1	5	5	1	0	1008	"cadenas"	"1"	"-spelling"	2
"10_1"	10	20	"right"	"Ilse"	"12:27:11"	"male"	11	1	5	5	5	1	764	"racaille"	"1"	"-spelling"	2
"10_1"	10	20	"right"	"Ilse"	"12:27:11"	"male"	12	5	1	1	5	0	886	"pourcine"	"1"	"-spelling"	2
"10_1"	10	20	"right"	"Ilse"	"12:27:11"	"male"	39	5	1	1	5	0	1608	"parchance"	"1"	"-spelling"	2
"10_1"	10	20	"right"	"Ilse"	"12:27:11"	"male"	40	1	5	5	5	1	3669	"pinceau"	"1"	"-spelling"	2
"10_1"	10	20	"right"	"Ilse"	"12:27:11"	"male"	29	5	1	1	1	1	2743	"gloque"	"1"	"-spelling"	2
"10_1"	10	20	"right"	"Ilse"	"12:27:11"	"male"	15	5	1	1	5	0	1789	"plaiser"	"1"	"-spelling"	2
"10_1"	10	20	"right"	"Ilse"	"12:27:11"	"male"	54	1	5	5	5	1	2133	"amorce"	"1"	"-spelling"	2
"10_1"	10	20	"right"	"Ilse"	"12:27:11"	"male"	55	1	5	5	5	1	1323	"cintre"	"1"	"-spelling"	2
"10_1"	10	20	"right"	"Ilse"	"12:27:11"	"male"	56	1	5	5	5	1	924	"chameau"	"1"	"-spelling"	2
"10_1"	10	20	"right"	"Ilse"	"12:27:11"	"male"	57	1	5	5	5	1	2406	"bouton"	"1"	"-spelling"	2
"10_1"	10	20	"right"	"Ilse"	"12:27:11"	"male"	58	1	5	5	1	0	2375	"capeline"	"1"	"-spelling"	2
"10_1"	10	20	"right"	"Ilse"	"12:27:11"	"male"	59	1	5	5	5	1	764	"lanière"	"1"	"-spelling"	2
"10_1"	10	20	"right"	"Ilse"	"12:27:11"	"male"	60	5	1	1	5	0	2042	"honteur"	"1"	"-spelling"	2
"10_1"	10	20	"right"	"Ilse"	"12:27:11"	"male"	61	1	5	5	5	1	3454	"abêtir"	"1"	"-spelling"	2
"10_1"	10	20	"right"	"Ilse"	"12:27:11"	"male"	62	1	5	5	5	1	2075	"fenêtre"	"1"	"-spelling"	2
"10_1"	10	20	"right"	"Ilse"	"12:27:11"	"male"	63	1	5	5	5	1	3340	"écureuil "	"1"	"-spelling"	2
"10_1"	10	20	"right"	"Ilse"	"12:27:11"	"male"	64	1	5	5	1	0	1487	"caddie"	"1"	"-spelling"	2
"10_1"	10	20	"right"	"Ilse"	"12:27:11"	"male"	41	1	5	5	1	0	3371	"poisson"	"1"	"-spelling"	2
"10_1"	10	20	"right"	"Ilse"	"12:27:11"	"male"	66	5	1	1	5	0	4579	"oeuiller"	"1"	"-spelling"	2
"10_1"	10	20	"right"	"Ilse"	"12:27:11"	"male"	67	1	5	5	1	0	1298	"balai"	"1"	"-spelling"	2
"10_1"	10	20	"right"	"Ilse"	"12:27:11"	"male"	68	5	1	1	5	0	3182	"prioche"	"1"	"-spelling"	2
"10_1"	10	20	"right"	"Ilse"	"12:27:11"	"male"	69	1	5	5	5	1	3141	"vicelard"	"1"	"-spelling"	2
"10_1"	10	20	"right"	"Ilse"	"12:27:11"	"male"	70	5	1	1	5	0	1953	"joueux"	"1"	"-spelling"	2
"10_1"	10	20	"right"	"Ilse"	"12:27:11"	"male"	71	5	1	1	1	1	3794	"agire"	"1"	"-spelling"	2
"10_1"	10	20	"right"	"Ilse"	"12:27:11"	"male"	72	1	5	5	1	0	1567	"éventail"	"1"	"-spelling"	2
"10_1"	10	20	"right"	"Ilse"	"12:27:11"	"male"	73	5	1	1	5	0	2519	"boutard"	"1"	"-spelling"	2
"10_1"	10	20	"right"	"Ilse"	"12:27:11"	"male"	74	1	5	5	1	0	3766	"panier"	"1"	"-spelling"	2
"10_1"	10	20	"right"	"Ilse"	"12:27:11"	"male"	75	1	5	5	5	1	2684	"citrouille"	"1"	"-spelling"	2
"10_1"	10	20	"right"	"Ilse"	"12:27:11"	"male"	76	1	5	5	5	1	1155	"bouilloire"	"1"	"-spelling"	2
"10_1"	10	20	"right"	"Ilse"	"12:27:11"	"male"	77	5	1	1	5	0	1166	"parir"	"1"	"-spelling"	2
"10_1"	10	20	"right"	"Ilse"	"12:27:11"	"male"	65	5	1	1	5	0	907	"détume"	"1"	"-spelling"	2
"10_1"	10	20	"right"	"Ilse"	"12:27:11"	"male"	79	5	1	1	1	1	7317	"procoreux"	"1"	"-spelling"	2
"10_1"	10	20	"right"	"Ilse"	"12:27:11"	"male"	80	1	5	5	5	1	915	"tanin"	"1"	"-spelling"	2
"10_1"	10	20	"right"	"Ilse"	"12:27:11"	"male"	81	1	5	5	5	1	1229	"église"	"1"	"-spelling"	2
"10_1"	10	20	"right"	"Ilse"	"12:27:11"	"male"	82	1	5	5	5	1	3949	"indicible"	"1"	"-spelling"	2
"10_1"	10	20	"right"	"Ilse"	"12:27:11"	"male"	83	5	1	1	5	0	1245	"réporce"	"1"	"-spelling"	2
"10_1"	10	20	"right"	"Ilse"	"12:27:11"	"male"	46	1	5	5	5	1	1293	"crayon"	"1"	"-spelling"	2
"10_1"	10	20	"right"	"Ilse"	"12:27:11"	"male"	47	5	1	1	5	0	1676	"sentuelle"	"1"	"-spelling"	2
"10_1"	10	20	"right"	"Ilse"	"12:27:11"	"male"	48	1	5	5	5	1	3405	"alourdir"	"1"	"-spelling"	2
"10_1"	10	20	"right"	"Ilse"	"12:27:11"	"male"	49	1	5	5	5	1	2264	"marteau"	"1"	"-spelling"	2
"10_1"	10	20	"right"	"Ilse"	"12:27:11"	"male"	50	1	5	5	1	0	1073	"esquif"	"1"	"-spelling"	2
"10_1"	10	20	"right"	"Ilse"	"12:27:11"	"male"	51	1	5	5	5	1	1318	"treillage"	"1"	"-spelling"	2
"10_1"	10	20	"right"	"Ilse"	"12:27:11"	"male"	52	1	5	5	1	0	1524	"dauphin"	"1"	"-spelling"	2
"10_1"	10	20	"right"	"Ilse"	"12:27:11"	"male"	78	1	5	5	1	0	5507	"remporter"	"1"	"-spelling"	2
"10_1"	10	20	"right"	"Ilse"	"12:27:11"	"male"	14	5	1	1	1	1	1622	"raplaner"	"1"	"-spelling"	2
"10_1"	10	20	"right"	"Ilse"	"12:27:11"	"male"	53	1	5	5	1	0	3094	"orgueil"	"1"	"-spelling"	2
"10_1"	10	20	"right"	"Ilse"	"12:27:11"	"male"	84	1	5	5	5	1	2343	"mignon"	"1"	"-spelling"	2
"10_1"	10	20	"right"	"Ilse"	"12:27:11"	"male"	13	1	5	5	5	1	2121	"œillet"	"1"	"-spelling"	2
"1002_1"	1002	22	"right"	"Ilse"	"9:25:19"	"male"	50	1	5	5	1	0	756	"esquif"	"1"	"-spelling"	2
"1002_1"	1002	22	"right"	"Ilse"	"9:25:19"	"male"	82	1	5	5	1	0	2145	"indicible"	"1"	"-spelling"	2
"1002_1"	1002	22	"right"	"Ilse"	"9:25:19"	"male"	49	1	5	5	1	0	983	"marteau"	"1"	"-spelling"	2
"1002_1"	1002	22	"right"	"Ilse"	"9:25:19"	"male"	54	1	5	5	1	0	1347	"amorce"	"1"	"-spelling"	2
"1002_1"	1002	22	"right"	"Ilse"	"9:25:19"	"male"	51	1	5	5	1	0	1428	"treillage"	"1"	"-spelling"	2
"1002_1"	1002	22	"right"	"Ilse"	"9:25:19"	"male"	83	5	1	1	1	1	921	"réporce"	"1"	"-spelling"	2
"1002_1"	1002	22	"right"	"Ilse"	"9:25:19"	"male"	84	1	5	5	1	0	724	"mignon"	"1"	"-spelling"	2
"1002_1"	1002	22	"right"	"Ilse"	"9:25:19"	"male"	55	1	5	5	1	0	1125	"cintre"	"1"	"-spelling"	2
"1002_1"	1002	22	"right"	"Ilse"	"9:25:19"	"male"	56	1	5	5	1	0	945	"chameau"	"1"	"-spelling"	2
"1002_1"	1002	22	"right"	"Ilse"	"9:25:19"	"male"	48	1	5	5	1	0	1184	"alourdir"	"1"	"-spelling"	2
"1002_1"	1002	22	"right"	"Ilse"	"9:25:19"	"male"	21	5	1	1	1	1	729	"metter"	"1"	"-spelling"	2
"1002_1"	1002	22	"right"	"Ilse"	"9:25:19"	"male"	22	1	5	5	1	0	573	"fosse"	"1"	"-spelling"	2
"1002_1"	1002	22	"right"	"Ilse"	"9:25:19"	"male"	23	1	5	5	1	0	711	"inciter"	"1"	"-spelling"	2
"1002_1"	1002	22	"right"	"Ilse"	"9:25:19"	"male"	52	1	5	5	5	1	1265	"dauphin"	"1"	"-spelling"	2
"1002_1"	1002	22	"right"	"Ilse"	"9:25:19"	"male"	53	1	5	5	1	0	2911	"orgueil"	"1"	"-spelling"	2
"1002_1"	1002	22	"right"	"Ilse"	"9:25:19"	"male"	66	5	1	1	1	1	1490	"oeuiller"	"1"	"-spelling"	2
"1002_1"	1002	22	"right"	"Ilse"	"9:25:19"	"male"	67	1	5	5	1	0	1283	"balai"	"1"	"-spelling"	2
"1002_1"	1002	22	"right"	"Ilse"	"9:25:19"	"male"	68	5	1	1	1	1	902	"prioche"	"1"	"-spelling"	2
"1002_1"	1002	22	"right"	"Ilse"	"9:25:19"	"male"	69	1	5	5	1	0	784	"vicelard"	"1"	"-spelling"	2
"1002_1"	1002	22	"right"	"Ilse"	"9:25:19"	"male"	70	5	1	1	5	0	1802	"joueux"	"1"	"-spelling"	2
"1002_1"	1002	22	"right"	"Ilse"	"9:25:19"	"male"	71	5	1	1	1	1	827	"agire"	"1"	"-spelling"	2
"1002_1"	1002	22	"right"	"Ilse"	"9:25:19"	"male"	72	1	5	5	1	0	1195	"éventail"	"1"	"-spelling"	2
"1002_1"	1002	22	"right"	"Ilse"	"9:25:19"	"male"	73	5	1	1	1	1	3602	"boutard"	"1"	"-spelling"	2
"1002_1"	1002	22	"right"	"Ilse"	"9:25:19"	"male"	74	1	5	5	1	0	1079	"panier"	"1"	"-spelling"	2
"1002_1"	1002	22	"right"	"Ilse"	"9:25:19"	"male"	75	1	5	5	1	0	1978	"citrouille"	"1"	"-spelling"	2
"1002_1"	1002	22	"right"	"Ilse"	"9:25:19"	"male"	76	1	5	5	1	0	2241	"bouilloire"	"1"	"-spelling"	2
"1002_1"	1002	22	"right"	"Ilse"	"9:25:19"	"male"	77	5	1	1	1	1	1237	"parir"	"1"	"-spelling"	2
"1002_1"	1002	22	"right"	"Ilse"	"9:25:19"	"male"	78	1	5	5	1	0	2978	"remporter"	"1"	"-spelling"	2
"1002_1"	1002	22	"right"	"Ilse"	"9:25:19"	"male"	79	5	1	1	1	1	3956	"procoreux"	"1"	"-spelling"	2
"1002_1"	1002	22	"right"	"Ilse"	"9:25:19"	"male"	80	1	5	5	1	0	679	"tanin"	"1"	"-spelling"	2
"1002_1"	1002	22	"right"	"Ilse"	"9:25:19"	"male"	81	1	5	5	1	0	2081	"église"	"1"	"-spelling"	2
"1002_1"	1002	22	"right"	"Ilse"	"9:25:19"	"male"	42	1	5	5	1	0	1303	"robinet"	"1"	"-spelling"	2
"1002_1"	1002	22	"right"	"Ilse"	"9:25:19"	"male"	43	1	5	5	1	0	3200	"amadouer"	"1"	"-spelling"	2
"1002_1"	1002	22	"right"	"Ilse"	"9:25:19"	"male"	44	1	5	5	1	0	1809	"peigne"	"1"	"-spelling"	2
"1002_1"	1002	22	"right"	"Ilse"	"9:25:19"	"male"	45	5	1	1	5	0	1086	"retruire"	"1"	"-spelling"	2
"1002_1"	1002	22	"right"	"Ilse"	"9:25:19"	"male"	46	1	5	5	5	1	1442	"crayon"	"1"	"-spelling"	2
"1002_1"	1002	22	"right"	"Ilse"	"9:25:19"	"male"	47	5	1	1	1	1	1542	"sentuelle"	"1"	"-spelling"	2
"1002_1"	1002	22	"right"	"Ilse"	"9:25:19"	"male"	7	1	5	5	1	0	2184	"canoter "	"1"	"-spelling"	2
"1002_1"	1002	22	"right"	"Ilse"	"9:25:19"	"male"	8	1	5	5	1	0	3575	"infâme"	"1"	"-spelling"	2
"1002_1"	1002	22	"right"	"Ilse"	"9:25:19"	"male"	9	1	5	5	1	0	1233	"fourmi"	"1"	"-spelling"	2
"1002_1"	1002	22	"right"	"Ilse"	"9:25:19"	"male"	10	1	5	5	5	1	2859	"cadenas"	"1"	"-spelling"	2
"1002_1"	1002	22	"right"	"Ilse"	"9:25:19"	"male"	11	1	5	5	5	1	808	"racaille"	"1"	"-spelling"	2
"1002_1"	1002	22	"right"	"Ilse"	"9:25:19"	"male"	12	5	1	1	5	0	1559	"pourcine"	"1"	"-spelling"	2
"1002_1"	1002	22	"right"	"Ilse"	"9:25:19"	"male"	13	1	5	5	1	0	1736	"œillet"	"1"	"-spelling"	2
"1002_1"	1002	22	"right"	"Ilse"	"9:25:19"	"male"	14	5	1	1	1	1	1713	"raplaner"	"1"	"-spelling"	2
"1002_1"	1002	22	"right"	"Ilse"	"9:25:19"	"male"	15	5	1	1	5	0	1299	"plaiser"	"1"	"-spelling"	2
"1002_1"	1002	22	"right"	"Ilse"	"9:25:19"	"male"	16	5	1	1	5	0	2446	"cerveler"	"1"	"-spelling"	2
"1002_1"	1002	22	"right"	"Ilse"	"9:25:19"	"male"	57	1	5	5	5	1	2838	"bouton"	"1"	"-spelling"	2
"1002_1"	1002	22	"right"	"Ilse"	"9:25:19"	"male"	58	1	5	5	1	0	734	"capeline"	"1"	"-spelling"	2
"1002_1"	1002	22	"right"	"Ilse"	"9:25:19"	"male"	59	1	5	5	1	0	2431	"lanière"	"1"	"-spelling"	2
"1002_1"	1002	22	"right"	"Ilse"	"9:25:19"	"male"	60	5	1	1	1	1	1401	"honteur"	"1"	"-spelling"	2
"1002_1"	1002	22	"right"	"Ilse"	"9:25:19"	"male"	61	1	5	5	1	0	2807	"abêtir"	"1"	"-spelling"	2
"1002_1"	1002	22	"right"	"Ilse"	"9:25:19"	"male"	62	1	5	5	1	0	2701	"fenêtre"	"1"	"-spelling"	2
"1002_1"	1002	22	"right"	"Ilse"	"9:25:19"	"male"	24	1	5	5	5	1	5128	"salière"	"1"	"-spelling"	2
"1002_1"	1002	22	"right"	"Ilse"	"9:25:19"	"male"	25	1	5	5	1	0	1328	"fouet"	"1"	"-spelling"	2
"1002_1"	1002	22	"right"	"Ilse"	"9:25:19"	"male"	26	5	1	1	5	0	1227	"cessure"	"1"	"-spelling"	2
"1002_1"	1002	22	"right"	"Ilse"	"9:25:19"	"male"	27	1	5	5	1	0	1160	"clouer"	"1"	"-spelling"	2
"1002_1"	1002	22	"right"	"Ilse"	"9:25:19"	"male"	28	1	5	5	1	0	3057	"mappemonde"	"1"	"-spelling"	2
"1002_1"	1002	22	"right"	"Ilse"	"9:25:19"	"male"	29	5	1	1	1	1	1582	"gloque"	"1"	"-spelling"	2
"1002_1"	1002	22	"right"	"Ilse"	"9:25:19"	"male"	30	1	5	5	1	0	1299	"lézard"	"1"	"-spelling"	2
"1002_1"	1002	22	"right"	"Ilse"	"9:25:19"	"male"	31	5	1	1	1	1	993	"sacher"	"1"	"-spelling"	2
"1002_1"	1002	22	"right"	"Ilse"	"9:25:19"	"male"	32	1	5	5	1	0	769	"nouer"	"1"	"-spelling"	2
"1002_1"	1002	22	"right"	"Ilse"	"9:25:19"	"male"	33	1	5	5	1	0	859	"occire"	"1"	"-spelling"	2
"1002_1"	1002	22	"right"	"Ilse"	"9:25:19"	"male"	34	5	1	1	1	1	916	"écouce"	"1"	"-spelling"	2
"1002_1"	1002	22	"right"	"Ilse"	"9:25:19"	"male"	35	5	1	1	1	1	711	"osseaux"	"1"	"-spelling"	2
"1002_1"	1002	22	"right"	"Ilse"	"9:25:19"	"male"	36	5	1	1	1	1	1204	"rejoute"	"1"	"-spelling"	2
"1002_1"	1002	22	"right"	"Ilse"	"9:25:19"	"male"	37	1	5	5	1	0	3540	"escroc"	"1"	"-spelling"	2
"1002_1"	1002	22	"right"	"Ilse"	"9:25:19"	"male"	38	1	5	5	1	0	854	"hache"	"1"	"-spelling"	2
"1002_1"	1002	22	"right"	"Ilse"	"9:25:19"	"male"	39	5	1	1	1	1	2224	"parchance"	"1"	"-spelling"	2
"1002_1"	1002	22	"right"	"Ilse"	"9:25:19"	"male"	40	1	5	5	1	0	1029	"pinceau"	"1"	"-spelling"	2
"1002_1"	1002	22	"right"	"Ilse"	"9:25:19"	"male"	41	1	5	5	5	1	1509	"poisson"	"1"	"-spelling"	2
"1002_1"	1002	22	"right"	"Ilse"	"9:25:19"	"male"	1	1	5	5	5	1	3758	"cheveux"	"1"	"-spelling"	2
"1002_1"	1002	22	"right"	"Ilse"	"9:25:19"	"male"	2	5	1	1	1	1	2027	"soumon"	"1"	"-spelling"	2
"1002_1"	1002	22	"right"	"Ilse"	"9:25:19"	"male"	3	1	5	5	1	0	917	"cloche"	"1"	"-spelling"	2
"1002_1"	1002	22	"right"	"Ilse"	"9:25:19"	"male"	4	1	5	5	1	0	1115	"fascine"	"1"	"-spelling"	2
"1002_1"	1002	22	"right"	"Ilse"	"9:25:19"	"male"	5	5	1	1	1	1	1386	"huif"	"1"	"-spelling"	2
"1002_1"	1002	22	"right"	"Ilse"	"9:25:19"	"male"	6	1	5	5	1	0	940	"semonce"	"1"	"-spelling"	2
"1002_1"	1002	22	"right"	"Ilse"	"9:25:19"	"male"	20	1	5	5	1	0	1194	"pouce"	"1"	"-spelling"	2
"1002_1"	1002	22	"right"	"Ilse"	"9:25:19"	"male"	65	5	1	1	1	1	1185	"détume"	"1"	"-spelling"	2
"1002_1"	1002	22	"right"	"Ilse"	"9:25:19"	"male"	17	5	1	1	5	0	1286	"endifier"	"1"	"-spelling"	2
"1002_1"	1002	22	"right"	"Ilse"	"9:25:19"	"male"	63	1	5	5	1	0	2611	"écureuil "	"1"	"-spelling"	2
"1002_1"	1002	22	"right"	"Ilse"	"9:25:19"	"male"	64	1	5	5	1	0	899	"caddie"	"1"	"-spelling"	2
"1002_1"	1002	22	"right"	"Ilse"	"9:25:19"	"male"	18	5	1	1	5	0	732	"jamain"	"1"	"-spelling"	2
"1002_1"	1002	22	"right"	"Ilse"	"9:25:19"	"male"	19	1	5	5	1	0	682	"ennemi"	"1"	"-spelling"	2
"1006_1"	1006	25	"right"	"Other"	"10:23:58"	"male"	43	1	5	5	1	0	866	"amadouer"	"1"	"-spelling"	2
"1006_1"	1006	25	"right"	"Other"	"10:23:58"	"male"	44	1	5	5	5	1	839	"peigne"	"1"	"-spelling"	2
"1006_1"	1006	25	"right"	"Other"	"10:23:58"	"male"	45	5	1	1	1	1	738	"retruire"	"1"	"-spelling"	2
"1006_1"	1006	25	"right"	"Other"	"10:23:58"	"male"	46	1	5	5	1	0	885	"crayon"	"1"	"-spelling"	2
"1006_1"	1006	25	"right"	"Other"	"10:23:58"	"male"	11	1	5	5	1	0	898	"racaille"	"1"	"-spelling"	2
"1006_1"	1006	25	"right"	"Other"	"10:23:58"	"male"	12	5	1	1	5	0	1059	"pourcine"	"1"	"-spelling"	2
"1006_1"	1006	25	"right"	"Other"	"10:23:58"	"male"	13	1	5	5	5	1	1472	"œillet"	"1"	"-spelling"	2
"1006_1"	1006	25	"right"	"Other"	"10:23:58"	"male"	10	1	5	5	1	0	1092	"cadenas"	"1"	"-spelling"	2
"1006_1"	1006	25	"right"	"Other"	"10:23:58"	"male"	42	1	5	5	1	0	682	"robinet"	"1"	"-spelling"	2
"1006_1"	1006	25	"right"	"Other"	"10:23:58"	"male"	16	5	1	1	5	0	873	"cerveler"	"1"	"-spelling"	2
"1006_1"	1006	25	"right"	"Other"	"10:23:58"	"male"	17	5	1	1	1	1	1618	"endifier"	"1"	"-spelling"	2
"1006_1"	1006	25	"right"	"Other"	"10:23:58"	"male"	18	5	1	1	5	0	891	"jamain"	"1"	"-spelling"	2
"1006_1"	1006	25	"right"	"Other"	"10:23:58"	"male"	19	1	5	5	1	0	1008	"ennemi"	"1"	"-spelling"	2
"1006_1"	1006	25	"right"	"Other"	"10:23:58"	"male"	20	1	5	5	5	1	770	"pouce"	"1"	"-spelling"	2
"1006_1"	1006	25	"right"	"Other"	"10:23:58"	"male"	21	5	1	1	5	0	1153	"metter"	"1"	"-spelling"	2
"1006_1"	1006	25	"right"	"Other"	"10:23:58"	"male"	22	1	5	5	5	1	912	"fosse"	"1"	"-spelling"	2
"1006_1"	1006	25	"right"	"Other"	"10:23:58"	"male"	23	1	5	5	5	1	880	"inciter"	"1"	"-spelling"	2
"1006_1"	1006	25	"right"	"Other"	"10:23:58"	"male"	24	1	5	5	5	1	861	"salière"	"1"	"-spelling"	2
"1006_1"	1006	25	"right"	"Other"	"10:23:58"	"male"	25	1	5	5	1	0	1243	"fouet"	"1"	"-spelling"	2
"1006_1"	1006	25	"right"	"Other"	"10:23:58"	"male"	26	5	1	1	1	1	768	"cessure"	"1"	"-spelling"	2
"1006_1"	1006	25	"right"	"Other"	"10:23:58"	"male"	27	1	5	5	1	0	781	"clouer"	"1"	"-spelling"	2
"1006_1"	1006	25	"right"	"Other"	"10:23:58"	"male"	28	1	5	5	1	0	1081	"mappemonde"	"1"	"-spelling"	2
"1006_1"	1006	25	"right"	"Other"	"10:23:58"	"male"	29	5	1	1	1	1	789	"gloque"	"1"	"-spelling"	2
"1006_1"	1006	25	"right"	"Other"	"10:23:58"	"male"	30	1	5	5	5	1	595	"lézard"	"1"	"-spelling"	2
"1006_1"	1006	25	"right"	"Other"	"10:23:58"	"male"	31	5	1	1	5	0	702	"sacher"	"1"	"-spelling"	2
"1006_1"	1006	25	"right"	"Other"	"10:23:58"	"male"	32	1	5	5	5	1	897	"nouer"	"1"	"-spelling"	2
"1006_1"	1006	25	"right"	"Other"	"10:23:58"	"male"	33	1	5	5	5	1	1094	"occire"	"1"	"-spelling"	2
"1006_1"	1006	25	"right"	"Other"	"10:23:58"	"male"	34	5	1	1	5	0	1027	"écouce"	"1"	"-spelling"	2
"1006_1"	1006	25	"right"	"Other"	"10:23:58"	"male"	35	5	1	1	1	1	1064	"osseaux"	"1"	"-spelling"	2
"1006_1"	1006	25	"right"	"Other"	"10:23:58"	"male"	36	5	1	1	1	1	1362	"rejoute"	"1"	"-spelling"	2
"1006_1"	1006	25	"right"	"Other"	"10:23:58"	"male"	37	1	5	5	1	0	1109	"escroc"	"1"	"-spelling"	2
"1006_1"	1006	25	"right"	"Other"	"10:23:58"	"male"	38	1	5	5	5	1	756	"hache"	"1"	"-spelling"	2
"1006_1"	1006	25	"right"	"Other"	"10:23:58"	"male"	39	5	1	1	1	1	1058	"parchance"	"1"	"-spelling"	2
"1006_1"	1006	25	"right"	"Other"	"10:23:58"	"male"	40	1	5	5	1	0	789	"pinceau"	"1"	"-spelling"	2
"1006_1"	1006	25	"right"	"Other"	"10:23:58"	"male"	41	1	5	5	5	1	597	"poisson"	"1"	"-spelling"	2
"1006_1"	1006	25	"right"	"Other"	"10:23:58"	"male"	83	5	1	1	1	1	936	"réporce"	"1"	"-spelling"	2
"1006_1"	1006	25	"right"	"Other"	"10:23:58"	"male"	84	1	5	5	5	1	949	"mignon"	"1"	"-spelling"	2
"1006_1"	1006	25	"right"	"Other"	"10:23:58"	"male"	3	1	5	5	1	0	1520	"cloche"	"1"	"-spelling"	2
"1006_1"	1006	25	"right"	"Other"	"10:23:58"	"male"	4	1	5	5	1	0	2004	"fascine"	"1"	"-spelling"	2
"1006_1"	1006	25	"right"	"Other"	"10:23:58"	"male"	5	5	1	1	1	1	1237	"huif"	"1"	"-spelling"	2
"1006_1"	1006	25	"right"	"Other"	"10:23:58"	"male"	6	1	5	5	5	1	900	"semonce"	"1"	"-spelling"	2
"1006_1"	1006	25	"right"	"Other"	"10:23:58"	"male"	7	1	5	5	1	0	875	"canoter "	"1"	"-spelling"	2
"1006_1"	1006	25	"right"	"Other"	"10:23:58"	"male"	8	1	5	5	5	1	1210	"infâme"	"1"	"-spelling"	2
"1006_1"	1006	25	"right"	"Other"	"10:23:58"	"male"	9	1	5	5	1	0	928	"fourmi"	"1"	"-spelling"	2
"1006_1"	1006	25	"right"	"Other"	"10:23:58"	"male"	50	1	5	5	1	0	758	"esquif"	"1"	"-spelling"	2
"1006_1"	1006	25	"right"	"Other"	"10:23:58"	"male"	51	1	5	5	1	0	918	"treillage"	"1"	"-spelling"	2
"1006_1"	1006	25	"right"	"Other"	"10:23:58"	"male"	52	1	5	5	5	1	947	"dauphin"	"1"	"-spelling"	2
"1006_1"	1006	25	"right"	"Other"	"10:23:58"	"male"	14	5	1	1	1	1	797	"raplaner"	"1"	"-spelling"	2
"1006_1"	1006	25	"right"	"Other"	"10:23:58"	"male"	15	5	1	1	5	0	924	"plaiser"	"1"	"-spelling"	2
"1006_1"	1006	25	"right"	"Other"	"10:23:58"	"male"	57	1	5	5	1	0	639	"bouton"	"1"	"-spelling"	2
"1006_1"	1006	25	"right"	"Other"	"10:23:58"	"male"	58	1	5	5	1	0	737	"capeline"	"1"	"-spelling"	2
"1006_1"	1006	25	"right"	"Other"	"10:23:58"	"male"	59	1	5	5	5	1	677	"lanière"	"1"	"-spelling"	2
"1006_1"	1006	25	"right"	"Other"	"10:23:58"	"male"	60	5	1	1	1	1	587	"honteur"	"1"	"-spelling"	2
"1006_1"	1006	25	"right"	"Other"	"10:23:58"	"male"	61	1	5	5	1	0	1012	"abêtir"	"1"	"-spelling"	2
"1006_1"	1006	25	"right"	"Other"	"10:23:58"	"male"	62	1	5	5	5	1	791	"fenêtre"	"1"	"-spelling"	2
"1006_1"	1006	25	"right"	"Other"	"10:23:58"	"male"	63	1	5	5	1	0	690	"écureuil "	"1"	"-spelling"	2
"1006_1"	1006	25	"right"	"Other"	"10:23:58"	"male"	64	1	5	5	1	0	927	"caddie"	"1"	"-spelling"	2
"1006_1"	1006	25	"right"	"Other"	"10:23:58"	"male"	65	5	1	1	1	1	977	"détume"	"1"	"-spelling"	2
"1006_1"	1006	25	"right"	"Other"	"10:23:58"	"male"	66	5	1	1	1	1	901	"oeuiller"	"1"	"-spelling"	2
"1006_1"	1006	25	"right"	"Other"	"10:23:58"	"male"	67	1	5	5	1	0	1190	"balai"	"1"	"-spelling"	2
"1006_1"	1006	25	"right"	"Other"	"10:23:58"	"male"	68	5	1	1	5	0	824	"prioche"	"1"	"-spelling"	2
"1006_1"	1006	25	"right"	"Other"	"10:23:58"	"male"	69	1	5	5	1	0	763	"vicelard"	"1"	"-spelling"	2
"1006_1"	1006	25	"right"	"Other"	"10:23:58"	"male"	70	5	1	1	1	1	745	"joueux"	"1"	"-spelling"	2
"1006_1"	1006	25	"right"	"Other"	"10:23:58"	"male"	71	5	1	1	5	0	837	"agire"	"1"	"-spelling"	2
"1006_1"	1006	25	"right"	"Other"	"10:23:58"	"male"	72	1	5	5	1	0	710	"éventail"	"1"	"-spelling"	2
"1006_1"	1006	25	"right"	"Other"	"10:23:58"	"male"	73	5	1	1	5	0	852	"boutard"	"1"	"-spelling"	2
"1006_1"	1006	25	"right"	"Other"	"10:23:58"	"male"	74	1	5	5	1	0	1101	"panier"	"1"	"-spelling"	2
"1006_1"	1006	25	"right"	"Other"	"10:23:58"	"male"	75	1	5	5	1	0	917	"citrouille"	"1"	"-spelling"	2
"1006_1"	1006	25	"right"	"Other"	"10:23:58"	"male"	76	1	5	5	5	1	945	"bouilloire"	"1"	"-spelling"	2
"1006_1"	1006	25	"right"	"Other"	"10:23:58"	"male"	77	5	1	1	5	0	943	"parir"	"1"	"-spelling"	2
"1006_1"	1006	25	"right"	"Other"	"10:23:58"	"male"	78	1	5	5	1	0	1000	"remporter"	"1"	"-spelling"	2
"1006_1"	1006	25	"right"	"Other"	"10:23:58"	"male"	79	5	1	1	1	1	1270	"procoreux"	"1"	"-spelling"	2
"1006_1"	1006	25	"right"	"Other"	"10:23:58"	"male"	80	1	5	5	1	0	939	"tanin"	"1"	"-spelling"	2
"1006_1"	1006	25	"right"	"Other"	"10:23:58"	"male"	81	1	5	5	5	1	757	"église"	"1"	"-spelling"	2
"1006_1"	1006	25	"right"	"Other"	"10:23:58"	"male"	82	1	5	5	5	1	1054	"indicible"	"1"	"-spelling"	2
"1006_1"	1006	25	"right"	"Other"	"10:23:58"	"male"	1	1	5	5	1	0	1552	"cheveux"	"1"	"-spelling"	2
"1006_1"	1006	25	"right"	"Other"	"10:23:58"	"male"	2	5	1	1	1	1	1078	"soumon"	"1"	"-spelling"	2
"1006_1"	1006	25	"right"	"Other"	"10:23:58"	"male"	56	1	5	5	5	1	693	"chameau"	"1"	"-spelling"	2
"1006_1"	1006	25	"right"	"Other"	"10:23:58"	"male"	48	1	5	5	1	0	613	"alourdir"	"1"	"-spelling"	2
"1006_1"	1006	25	"right"	"Other"	"10:23:58"	"male"	49	1	5	5	5	1	602	"marteau"	"1"	"-spelling"	2
"1006_1"	1006	25	"right"	"Other"	"10:23:58"	"male"	54	1	5	5	1	0	868	"amorce"	"1"	"-spelling"	2
"1006_1"	1006	25	"right"	"Other"	"10:23:58"	"male"	47	5	1	1	1	1	734	"sentuelle"	"1"	"-spelling"	2
"1006_1"	1006	25	"right"	"Other"	"10:23:58"	"male"	53	1	5	5	1	0	764	"orgueil"	"1"	"-spelling"	2
"1006_1"	1006	25	"right"	"Other"	"10:23:58"	"male"	55	1	5	5	1	0	927	"cintre"	"1"	"-spelling"	2
"1007_1"	1007	23	"right"	"Ilse"	"10:52:42"	"male"	2	5	1	1	1	1	810	"soumon"	"1"	"-spelling"	2
"1007_1"	1007	23	"right"	"Ilse"	"10:52:42"	"male"	4	1	5	5	1	0	1086	"fascine"	"1"	"-spelling"	2
"1007_1"	1007	23	"right"	"Ilse"	"10:52:42"	"male"	10	1	5	5	1	0	991	"cadenas"	"1"	"-spelling"	2
"1007_1"	1007	23	"right"	"Ilse"	"10:52:42"	"male"	3	1	5	5	1	0	835	"cloche"	"1"	"-spelling"	2
"1007_1"	1007	23	"right"	"Ilse"	"10:52:42"	"male"	8	1	5	5	1	0	927	"infâme"	"1"	"-spelling"	2
"1007_1"	1007	23	"right"	"Ilse"	"10:52:42"	"male"	9	1	5	5	1	0	1146	"fourmi"	"1"	"-spelling"	2
"1007_1"	1007	23	"right"	"Ilse"	"10:52:42"	"male"	1	1	5	5	5	1	2025	"cheveux"	"1"	"-spelling"	2
"1007_1"	1007	23	"right"	"Ilse"	"10:52:42"	"male"	55	1	5	5	1	0	567	"cintre"	"1"	"-spelling"	2
"1007_1"	1007	23	"right"	"Ilse"	"10:52:42"	"male"	56	1	5	5	1	0	642	"chameau"	"1"	"-spelling"	2
"1007_1"	1007	23	"right"	"Ilse"	"10:52:42"	"male"	57	1	5	5	5	1	928	"bouton"	"1"	"-spelling"	2
"1007_1"	1007	23	"right"	"Ilse"	"10:52:42"	"male"	58	1	5	5	1	0	698	"capeline"	"1"	"-spelling"	2
"1007_1"	1007	23	"right"	"Ilse"	"10:52:42"	"male"	59	1	5	5	1	0	639	"lanière"	"1"	"-spelling"	2
"1007_1"	1007	23	"right"	"Ilse"	"10:52:42"	"male"	60	5	1	1	1	1	597	"honteur"	"1"	"-spelling"	2
"1007_1"	1007	23	"right"	"Ilse"	"10:52:42"	"male"	61	1	5	5	1	0	1240	"abêtir"	"1"	"-spelling"	2
"1007_1"	1007	23	"right"	"Ilse"	"10:52:42"	"male"	62	1	5	5	5	1	716	"fenêtre"	"1"	"-spelling"	2
"1007_1"	1007	23	"right"	"Ilse"	"10:52:42"	"male"	63	1	5	5	1	0	780	"écureuil "	"1"	"-spelling"	2
"1007_1"	1007	23	"right"	"Ilse"	"10:52:42"	"male"	64	1	5	5	1	0	1302	"caddie"	"1"	"-spelling"	2
"1007_1"	1007	23	"right"	"Ilse"	"10:52:42"	"male"	65	5	1	1	1	1	900	"détume"	"1"	"-spelling"	2
"1007_1"	1007	23	"right"	"Ilse"	"10:52:42"	"male"	66	5	1	1	1	1	821	"oeuiller"	"1"	"-spelling"	2
"1007_1"	1007	23	"right"	"Ilse"	"10:52:42"	"male"	67	1	5	5	1	0	662	"balai"	"1"	"-spelling"	2
"1007_1"	1007	23	"right"	"Ilse"	"10:52:42"	"male"	68	5	1	1	1	1	1150	"prioche"	"1"	"-spelling"	2
"1007_1"	1007	23	"right"	"Ilse"	"10:52:42"	"male"	69	1	5	5	1	0	1384	"vicelard"	"1"	"-spelling"	2
"1007_1"	1007	23	"right"	"Ilse"	"10:52:42"	"male"	70	5	1	1	5	0	1640	"joueux"	"1"	"-spelling"	2
"1007_1"	1007	23	"right"	"Ilse"	"10:52:42"	"male"	71	5	1	1	5	0	1274	"agire"	"1"	"-spelling"	2
"1007_1"	1007	23	"right"	"Ilse"	"10:52:42"	"male"	72	1	5	5	1	0	667	"éventail"	"1"	"-spelling"	2
"1007_1"	1007	23	"right"	"Ilse"	"10:52:42"	"male"	73	5	1	1	5	0	1850	"boutard"	"1"	"-spelling"	2
"1007_1"	1007	23	"right"	"Ilse"	"10:52:42"	"male"	74	1	5	5	1	0	776	"panier"	"1"	"-spelling"	2
"1007_1"	1007	23	"right"	"Ilse"	"10:52:42"	"male"	75	1	5	5	1	0	811	"citrouille"	"1"	"-spelling"	2
"1007_1"	1007	23	"right"	"Ilse"	"10:52:42"	"male"	76	1	5	5	1	0	677	"bouilloire"	"1"	"-spelling"	2
"1007_1"	1007	23	"right"	"Ilse"	"10:52:42"	"male"	77	5	1	1	1	1	1350	"parir"	"1"	"-spelling"	2
"1007_1"	1007	23	"right"	"Ilse"	"10:52:42"	"male"	78	1	5	5	1	0	758	"remporter"	"1"	"-spelling"	2
"1007_1"	1007	23	"right"	"Ilse"	"10:52:42"	"male"	79	5	1	1	1	1	815	"procoreux"	"1"	"-spelling"	2
"1007_1"	1007	23	"right"	"Ilse"	"10:52:42"	"male"	80	1	5	5	1	0	622	"tanin"	"1"	"-spelling"	2
"1007_1"	1007	23	"right"	"Ilse"	"10:52:42"	"male"	81	1	5	5	5	1	1000	"église"	"1"	"-spelling"	2
"1007_1"	1007	23	"right"	"Ilse"	"10:52:42"	"male"	82	1	5	5	5	1	2130	"indicible"	"1"	"-spelling"	2
"1007_1"	1007	23	"right"	"Ilse"	"10:52:42"	"male"	83	5	1	1	1	1	781	"réporce"	"1"	"-spelling"	2
"1007_1"	1007	23	"right"	"Ilse"	"10:52:42"	"male"	84	1	5	5	5	1	1855	"mignon"	"1"	"-spelling"	2
"1007_1"	1007	23	"right"	"Ilse"	"10:52:42"	"male"	5	5	1	1	1	1	1247	"huif"	"1"	"-spelling"	2
"1007_1"	1007	23	"right"	"Ilse"	"10:52:42"	"male"	6	1	5	5	1	0	729	"semonce"	"1"	"-spelling"	2
"1007_1"	1007	23	"right"	"Ilse"	"10:52:42"	"male"	7	1	5	5	1	0	830	"canoter "	"1"	"-spelling"	2
"1007_1"	1007	23	"right"	"Ilse"	"10:52:42"	"male"	48	1	5	5	1	0	787	"alourdir"	"1"	"-spelling"	2
"1007_1"	1007	23	"right"	"Ilse"	"10:52:42"	"male"	49	1	5	5	1	0	1446	"marteau"	"1"	"-spelling"	2
"1007_1"	1007	23	"right"	"Ilse"	"10:52:42"	"male"	50	1	5	5	5	1	1007	"esquif"	"1"	"-spelling"	2
"1007_1"	1007	23	"right"	"Ilse"	"10:52:42"	"male"	51	1	5	5	1	0	1001	"treillage"	"1"	"-spelling"	2
"1007_1"	1007	23	"right"	"Ilse"	"10:52:42"	"male"	52	1	5	5	5	1	1301	"dauphin"	"1"	"-spelling"	2
"1007_1"	1007	23	"right"	"Ilse"	"10:52:42"	"male"	53	1	5	5	1	0	1068	"orgueil"	"1"	"-spelling"	2
"1007_1"	1007	23	"right"	"Ilse"	"10:52:42"	"male"	54	1	5	5	1	0	833	"amorce"	"1"	"-spelling"	2
"1007_1"	1007	23	"right"	"Ilse"	"10:52:42"	"male"	14	5	1	1	1	1	1132	"raplaner"	"1"	"-spelling"	2
"1007_1"	1007	23	"right"	"Ilse"	"10:52:42"	"male"	15	5	1	1	5	0	908	"plaiser"	"1"	"-spelling"	2
"1007_1"	1007	23	"right"	"Ilse"	"10:52:42"	"male"	16	5	1	1	1	1	1021	"cerveler"	"1"	"-spelling"	2
"1007_1"	1007	23	"right"	"Ilse"	"10:52:42"	"male"	17	5	1	1	1	1	1054	"endifier"	"1"	"-spelling"	2
"1007_1"	1007	23	"right"	"Ilse"	"10:52:42"	"male"	18	5	1	1	1	1	1203	"jamain"	"1"	"-spelling"	2
"1007_1"	1007	23	"right"	"Ilse"	"10:52:42"	"male"	19	1	5	5	1	0	1425	"ennemi"	"1"	"-spelling"	2
"1007_1"	1007	23	"right"	"Ilse"	"10:52:42"	"male"	20	1	5	5	5	1	1766	"pouce"	"1"	"-spelling"	2
"1007_1"	1007	23	"right"	"Ilse"	"10:52:42"	"male"	21	5	1	1	1	1	670	"metter"	"1"	"-spelling"	2
"1007_1"	1007	23	"right"	"Ilse"	"10:52:42"	"male"	22	1	5	5	1	0	711	"fosse"	"1"	"-spelling"	2
"1007_1"	1007	23	"right"	"Ilse"	"10:52:42"	"male"	23	1	5	5	1	0	672	"inciter"	"1"	"-spelling"	2
"1007_1"	1007	23	"right"	"Ilse"	"10:52:42"	"male"	24	1	5	5	1	0	917	"salière"	"1"	"-spelling"	2
"1007_1"	1007	23	"right"	"Ilse"	"10:52:42"	"male"	25	1	5	5	1	0	1570	"fouet"	"1"	"-spelling"	2
"1007_1"	1007	23	"right"	"Ilse"	"10:52:42"	"male"	26	5	1	1	1	1	684	"cessure"	"1"	"-spelling"	2
"1007_1"	1007	23	"right"	"Ilse"	"10:52:42"	"male"	27	1	5	5	1	0	1035	"clouer"	"1"	"-spelling"	2
"1007_1"	1007	23	"right"	"Ilse"	"10:52:42"	"male"	28	1	5	5	1	0	1125	"mappemonde"	"1"	"-spelling"	2
"1007_1"	1007	23	"right"	"Ilse"	"10:52:42"	"male"	29	5	1	1	1	1	759	"gloque"	"1"	"-spelling"	2
"1007_1"	1007	23	"right"	"Ilse"	"10:52:42"	"male"	30	1	5	5	5	1	1654	"lézard"	"1"	"-spelling"	2
"1007_1"	1007	23	"right"	"Ilse"	"10:52:42"	"male"	31	5	1	1	1	1	1560	"sacher"	"1"	"-spelling"	2
"1007_1"	1007	23	"right"	"Ilse"	"10:52:42"	"male"	32	1	5	5	1	0	1137	"nouer"	"1"	"-spelling"	2
"1007_1"	1007	23	"right"	"Ilse"	"10:52:42"	"male"	33	1	5	5	1	0	628	"occire"	"1"	"-spelling"	2
"1007_1"	1007	23	"right"	"Ilse"	"10:52:42"	"male"	34	5	1	1	1	1	1133	"écouce"	"1"	"-spelling"	2
"1007_1"	1007	23	"right"	"Ilse"	"10:52:42"	"male"	35	5	1	1	1	1	1383	"osseaux"	"1"	"-spelling"	2
"1007_1"	1007	23	"right"	"Ilse"	"10:52:42"	"male"	36	5	1	1	1	1	1454	"rejoute"	"1"	"-spelling"	2
"1007_1"	1007	23	"right"	"Ilse"	"10:52:42"	"male"	37	1	5	5	1	0	798	"escroc"	"1"	"-spelling"	2
"1007_1"	1007	23	"right"	"Ilse"	"10:52:42"	"male"	38	1	5	5	1	0	1518	"hache"	"1"	"-spelling"	2
"1007_1"	1007	23	"right"	"Ilse"	"10:52:42"	"male"	39	5	1	1	1	1	1425	"parchance"	"1"	"-spelling"	2
"1007_1"	1007	23	"right"	"Ilse"	"10:52:42"	"male"	40	1	5	5	1	0	1081	"pinceau"	"1"	"-spelling"	2
"1007_1"	1007	23	"right"	"Ilse"	"10:52:42"	"male"	41	1	5	5	5	1	859	"poisson"	"1"	"-spelling"	2
"1007_1"	1007	23	"right"	"Ilse"	"10:52:42"	"male"	42	1	5	5	1	0	1186	"robinet"	"1"	"-spelling"	2
"1007_1"	1007	23	"right"	"Ilse"	"10:52:42"	"male"	43	1	5	5	1	0	1334	"amadouer"	"1"	"-spelling"	2
"1007_1"	1007	23	"right"	"Ilse"	"10:52:42"	"male"	44	1	5	5	5	1	1788	"peigne"	"1"	"-spelling"	2
"1007_1"	1007	23	"right"	"Ilse"	"10:52:42"	"male"	45	5	1	1	5	0	1971	"retruire"	"1"	"-spelling"	2
"1007_1"	1007	23	"right"	"Ilse"	"10:52:42"	"male"	46	1	5	5	5	1	845	"crayon"	"1"	"-spelling"	2
"1007_1"	1007	23	"right"	"Ilse"	"10:52:42"	"male"	47	5	1	1	5	0	2096	"sentuelle"	"1"	"-spelling"	2
"1007_1"	1007	23	"right"	"Ilse"	"10:52:42"	"male"	12	5	1	1	5	0	1035	"pourcine"	"1"	"-spelling"	2
"1007_1"	1007	23	"right"	"Ilse"	"10:52:42"	"male"	13	1	5	5	1	0	1279	"œillet"	"1"	"-spelling"	2
"1007_1"	1007	23	"right"	"Ilse"	"10:52:42"	"male"	11	1	5	5	1	0	1015	"racaille"	"1"	"-spelling"	2
"12_1"	12	20	"right"	"Nadia"	"9:57:01"	"female"	52	1	5	5	5	1	1218	"dauphin"	"1"	"-spelling"	2
"12_1"	12	20	"right"	"Nadia"	"9:57:01"	"female"	51	1	5	5	1	0	1635	"treillage"	"1"	"-spelling"	2
"12_1"	12	20	"right"	"Nadia"	"9:57:01"	"female"	56	1	5	5	1	0	951	"chameau"	"1"	"-spelling"	2
"12_1"	12	20	"right"	"Nadia"	"9:57:01"	"female"	53	1	5	5	1	0	1908	"orgueil"	"1"	"-spelling"	2
"12_1"	12	20	"right"	"Nadia"	"9:57:01"	"female"	59	1	5	5	1	0	1301	"lanière"	"1"	"-spelling"	2
"12_1"	12	20	"right"	"Nadia"	"9:57:01"	"female"	60	5	1	1	1	1	2595	"honteur"	"1"	"-spelling"	2
"12_1"	12	20	"right"	"Nadia"	"9:57:01"	"female"	57	1	5	5	1	0	1642	"bouton"	"1"	"-spelling"	2
"12_1"	12	20	"right"	"Nadia"	"9:57:01"	"female"	58	1	5	5	1	0	952	"capeline"	"1"	"-spelling"	2
"12_1"	12	20	"right"	"Nadia"	"9:57:01"	"female"	63	1	5	5	1	0	1092	"écureuil "	"1"	"-spelling"	2
"12_1"	12	20	"right"	"Nadia"	"9:57:01"	"female"	64	1	5	5	1	0	982	"caddie"	"1"	"-spelling"	2
"12_1"	12	20	"right"	"Nadia"	"9:57:01"	"female"	65	5	1	1	1	1	1132	"détume"	"1"	"-spelling"	2
"12_1"	12	20	"right"	"Nadia"	"9:57:01"	"female"	66	5	1	1	1	1	1239	"oeuiller"	"1"	"-spelling"	2
"12_1"	12	20	"right"	"Nadia"	"9:57:01"	"female"	54	1	5	5	1	0	881	"amorce"	"1"	"-spelling"	2
"12_1"	12	20	"right"	"Nadia"	"9:57:01"	"female"	55	1	5	5	1	0	1077	"cintre"	"1"	"-spelling"	2
"12_1"	12	20	"right"	"Nadia"	"9:57:01"	"female"	69	1	5	5	1	0	1155	"vicelard"	"1"	"-spelling"	2
"12_1"	12	20	"right"	"Nadia"	"9:57:01"	"female"	70	5	1	1	5	0	1042	"joueux"	"1"	"-spelling"	2
"12_1"	12	20	"right"	"Nadia"	"9:57:01"	"female"	71	5	1	1	1	1	1945	"agire"	"1"	"-spelling"	2
"12_1"	12	20	"right"	"Nadia"	"9:57:01"	"female"	73	5	1	1	1	1	849	"boutard"	"1"	"-spelling"	2
"12_1"	12	20	"right"	"Nadia"	"9:57:01"	"female"	74	1	5	5	1	0	1063	"panier"	"1"	"-spelling"	2
"12_1"	12	20	"right"	"Nadia"	"9:57:01"	"female"	61	1	5	5	1	0	3952	"abêtir"	"1"	"-spelling"	2
"12_1"	12	20	"right"	"Nadia"	"9:57:01"	"female"	62	1	5	5	5	1	909	"fenêtre"	"1"	"-spelling"	2
"12_1"	12	20	"right"	"Nadia"	"9:57:01"	"female"	77	5	1	1	5	0	1075	"parir"	"1"	"-spelling"	2
"12_1"	12	20	"right"	"Nadia"	"9:57:01"	"female"	78	1	5	5	1	0	1215	"remporter"	"1"	"-spelling"	2
"12_1"	12	20	"right"	"Nadia"	"9:57:01"	"female"	79	5	1	1	1	1	1070	"procoreux"	"1"	"-spelling"	2
"12_1"	12	20	"right"	"Nadia"	"9:57:01"	"female"	80	1	5	5	1	0	1189	"tanin"	"1"	"-spelling"	2
"12_1"	12	20	"right"	"Nadia"	"9:57:01"	"female"	67	1	5	5	1	0	997	"balai"	"1"	"-spelling"	2
"12_1"	12	20	"right"	"Nadia"	"9:57:01"	"female"	68	5	1	1	1	1	4257	"prioche"	"1"	"-spelling"	2
"12_1"	12	20	"right"	"Nadia"	"9:57:01"	"female"	1	1	5	5	5	1	4155	"cheveux"	"1"	"-spelling"	2
"12_1"	12	20	"right"	"Nadia"	"9:57:01"	"female"	81	1	5	5	1	0	1509	"église"	"1"	"-spelling"	2
"12_1"	12	20	"right"	"Nadia"	"9:57:01"	"female"	82	1	5	5	1	0	1435	"indicible"	"1"	"-spelling"	2
"12_1"	12	20	"right"	"Nadia"	"9:57:01"	"female"	83	5	1	1	1	1	2063	"réporce"	"1"	"-spelling"	2
"12_1"	12	20	"right"	"Nadia"	"9:57:01"	"female"	84	1	5	5	5	1	1088	"mignon"	"1"	"-spelling"	2
"12_1"	12	20	"right"	"Nadia"	"9:57:01"	"female"	75	1	5	5	1	0	1512	"citrouille"	"1"	"-spelling"	2
"12_1"	12	20	"right"	"Nadia"	"9:57:01"	"female"	76	1	5	5	1	0	1071	"bouilloire"	"1"	"-spelling"	2
"12_1"	12	20	"right"	"Nadia"	"9:57:01"	"female"	49	1	5	5	1	0	1161	"marteau"	"1"	"-spelling"	2
"12_1"	12	20	"right"	"Nadia"	"9:57:01"	"female"	50	1	5	5	1	0	1152	"esquif"	"1"	"-spelling"	2
"12_1"	12	20	"right"	"Nadia"	"9:57:01"	"female"	9	1	5	5	5	1	2091	"fourmi"	"1"	"-spelling"	2
"12_1"	12	20	"right"	"Nadia"	"9:57:01"	"female"	10	1	5	5	1	0	949	"cadenas"	"1"	"-spelling"	2
"12_1"	12	20	"right"	"Nadia"	"9:57:01"	"female"	11	1	5	5	1	0	1002	"racaille"	"1"	"-spelling"	2
"12_1"	12	20	"right"	"Nadia"	"9:57:01"	"female"	12	5	1	1	1	1	1425	"pourcine"	"1"	"-spelling"	2
"12_1"	12	20	"right"	"Nadia"	"9:57:01"	"female"	13	1	5	5	1	0	1213	"œillet"	"1"	"-spelling"	2
"12_1"	12	20	"right"	"Nadia"	"9:57:01"	"female"	14	5	1	1	1	1	1897	"raplaner"	"1"	"-spelling"	2
"12_1"	12	20	"right"	"Nadia"	"9:57:01"	"female"	15	5	1	1	5	0	1003	"plaiser"	"1"	"-spelling"	2
"12_1"	12	20	"right"	"Nadia"	"9:57:01"	"female"	16	5	1	1	1	1	954	"cerveler"	"1"	"-spelling"	2
"12_1"	12	20	"right"	"Nadia"	"9:57:01"	"female"	17	5	1	1	1	1	1892	"endifier"	"1"	"-spelling"	2
"12_1"	12	20	"right"	"Nadia"	"9:57:01"	"female"	18	5	1	1	5	0	845	"jamain"	"1"	"-spelling"	2
"12_1"	12	20	"right"	"Nadia"	"9:57:01"	"female"	19	1	5	5	1	0	1361	"ennemi"	"1"	"-spelling"	2
"12_1"	12	20	"right"	"Nadia"	"9:57:01"	"female"	20	1	5	5	1	0	1865	"pouce"	"1"	"-spelling"	2
"12_1"	12	20	"right"	"Nadia"	"9:57:01"	"female"	21	5	1	1	1	1	2924	"metter"	"1"	"-spelling"	2
"12_1"	12	20	"right"	"Nadia"	"9:57:01"	"female"	22	1	5	5	1	0	1273	"fosse"	"1"	"-spelling"	2
"12_1"	12	20	"right"	"Nadia"	"9:57:01"	"female"	23	1	5	5	5	1	2651	"inciter"	"1"	"-spelling"	2
"12_1"	12	20	"right"	"Nadia"	"9:57:01"	"female"	24	1	5	5	1	0	3010	"salière"	"1"	"-spelling"	2
"12_1"	12	20	"right"	"Nadia"	"9:57:01"	"female"	25	1	5	5	1	0	1207	"fouet"	"1"	"-spelling"	2
"12_1"	12	20	"right"	"Nadia"	"9:57:01"	"female"	26	5	1	1	5	0	4185	"cessure"	"1"	"-spelling"	2
"12_1"	12	20	"right"	"Nadia"	"9:57:01"	"female"	27	1	5	5	1	0	1083	"clouer"	"1"	"-spelling"	2
"12_1"	12	20	"right"	"Nadia"	"9:57:01"	"female"	28	1	5	5	1	0	987	"mappemonde"	"1"	"-spelling"	2
"12_1"	12	20	"right"	"Nadia"	"9:57:01"	"female"	29	5	1	1	1	1	2604	"gloque"	"1"	"-spelling"	2
"12_1"	12	20	"right"	"Nadia"	"9:57:01"	"female"	72	1	5	5	1	0	851	"éventail"	"1"	"-spelling"	2
"12_1"	12	20	"right"	"Nadia"	"9:57:01"	"female"	31	5	1	1	5	0	1671	"sacher"	"1"	"-spelling"	2
"12_1"	12	20	"right"	"Nadia"	"9:57:01"	"female"	32	1	5	5	1	0	1005	"nouer"	"1"	"-spelling"	2
"12_1"	12	20	"right"	"Nadia"	"9:57:01"	"female"	33	1	5	5	1	0	2193	"occire"	"1"	"-spelling"	2
"12_1"	12	20	"right"	"Nadia"	"9:57:01"	"female"	34	5	1	1	1	1	2656	"écouce"	"1"	"-spelling"	2
"12_1"	12	20	"right"	"Nadia"	"9:57:01"	"female"	35	5	1	1	5	0	2359	"osseaux"	"1"	"-spelling"	2
"12_1"	12	20	"right"	"Nadia"	"9:57:01"	"female"	36	5	1	1	1	1	1308	"rejoute"	"1"	"-spelling"	2
"12_1"	12	20	"right"	"Nadia"	"9:57:01"	"female"	37	1	5	5	1	0	870	"escroc"	"1"	"-spelling"	2
"12_1"	12	20	"right"	"Nadia"	"9:57:01"	"female"	38	1	5	5	1	0	713	"hache"	"1"	"-spelling"	2
"12_1"	12	20	"right"	"Nadia"	"9:57:01"	"female"	39	5	1	1	1	1	2321	"parchance"	"1"	"-spelling"	2
"12_1"	12	20	"right"	"Nadia"	"9:57:01"	"female"	40	1	5	5	1	0	1635	"pinceau"	"1"	"-spelling"	2
"12_1"	12	20	"right"	"Nadia"	"9:57:01"	"female"	2	5	1	1	1	1	1455	"soumon"	"1"	"-spelling"	2
"12_1"	12	20	"right"	"Nadia"	"9:57:01"	"female"	3	1	5	5	1	0	1433	"cloche"	"1"	"-spelling"	2
"12_1"	12	20	"right"	"Nadia"	"9:57:01"	"female"	4	1	5	5	1	0	1537	"fascine"	"1"	"-spelling"	2
"12_1"	12	20	"right"	"Nadia"	"9:57:01"	"female"	5	5	1	1	1	1	1746	"huif"	"1"	"-spelling"	2
"12_1"	12	20	"right"	"Nadia"	"9:57:01"	"female"	6	1	5	5	1	0	1438	"semonce"	"1"	"-spelling"	2
"12_1"	12	20	"right"	"Nadia"	"9:57:01"	"female"	47	5	1	1	1	1	968	"sentuelle"	"1"	"-spelling"	2
"12_1"	12	20	"right"	"Nadia"	"9:57:01"	"female"	48	1	5	5	1	0	1003	"alourdir"	"1"	"-spelling"	2
"12_1"	12	20	"right"	"Nadia"	"9:57:01"	"female"	8	1	5	5	1	0	1294	"infâme"	"1"	"-spelling"	2
"12_1"	12	20	"right"	"Nadia"	"9:57:01"	"female"	30	1	5	5	1	0	4491	"lézard"	"1"	"-spelling"	2
"12_1"	12	20	"right"	"Nadia"	"9:57:01"	"female"	44	1	5	5	5	1	1412	"peigne"	"1"	"-spelling"	2
"12_1"	12	20	"right"	"Nadia"	"9:57:01"	"female"	41	1	5	5	5	1	767	"poisson"	"1"	"-spelling"	2
"12_1"	12	20	"right"	"Nadia"	"9:57:01"	"female"	42	1	5	5	1	0	931	"robinet"	"1"	"-spelling"	2
"12_1"	12	20	"right"	"Nadia"	"9:57:01"	"female"	7	1	5	5	5	1	1833	"canoter "	"1"	"-spelling"	2
"12_1"	12	20	"right"	"Nadia"	"9:57:01"	"female"	43	1	5	5	1	0	1471	"amadouer"	"1"	"-spelling"	2
"12_1"	12	20	"right"	"Nadia"	"9:57:01"	"female"	45	5	1	1	5	0	1380	"retruire"	"1"	"-spelling"	2
"12_1"	12	20	"right"	"Nadia"	"9:57:01"	"female"	46	1	5	5	5	1	891	"crayon"	"1"	"-spelling"	2
"14_1"	14	20	"left"	"Ilse"	"14:24:51"	"female"	44	1	5	1	1	1	1283	"peigne"	"1"	"-spelling"	2
"14_1"	14	20	"left"	"Ilse"	"14:24:51"	"female"	45	5	1	5	1	0	2558	"retruire"	"1"	"-spelling"	2
"14_1"	14	20	"left"	"Ilse"	"14:24:51"	"female"	46	1	5	1	5	0	1519	"crayon"	"1"	"-spelling"	2
"14_1"	14	20	"left"	"Ilse"	"14:24:51"	"female"	47	5	1	5	1	0	4116	"sentuelle"	"1"	"-spelling"	2
"14_1"	14	20	"left"	"Ilse"	"14:24:51"	"female"	48	1	5	1	5	0	1524	"alourdir"	"1"	"-spelling"	2
"14_1"	14	20	"left"	"Ilse"	"14:24:51"	"female"	49	1	5	1	5	0	2693	"marteau"	"1"	"-spelling"	2
"14_1"	14	20	"left"	"Ilse"	"14:24:51"	"female"	58	1	5	1	1	1	1176	"capeline"	"1"	"-spelling"	2
"14_1"	14	20	"left"	"Ilse"	"14:24:51"	"female"	59	1	5	1	1	1	809	"lanière"	"1"	"-spelling"	2
"14_1"	14	20	"left"	"Ilse"	"14:24:51"	"female"	60	5	1	5	5	1	1166	"honteur"	"1"	"-spelling"	2
"14_1"	14	20	"left"	"Ilse"	"14:24:51"	"female"	57	1	5	1	1	1	1124	"bouton"	"1"	"-spelling"	2
"14_1"	14	20	"left"	"Ilse"	"14:24:51"	"female"	62	1	5	1	1	1	1012	"fenêtre"	"1"	"-spelling"	2
"14_1"	14	20	"left"	"Ilse"	"14:24:51"	"female"	50	1	5	1	5	0	1419	"esquif"	"1"	"-spelling"	2
"14_1"	14	20	"left"	"Ilse"	"14:24:51"	"female"	51	1	5	1	1	1	1228	"treillage"	"1"	"-spelling"	2
"14_1"	14	20	"left"	"Ilse"	"14:24:51"	"female"	61	1	5	1	1	1	896	"abêtir"	"1"	"-spelling"	2
"14_1"	14	20	"left"	"Ilse"	"14:24:51"	"female"	53	1	5	1	5	0	2515	"orgueil"	"1"	"-spelling"	2
"14_1"	14	20	"left"	"Ilse"	"14:24:51"	"female"	54	1	5	1	1	1	2280	"amorce"	"1"	"-spelling"	2
"14_1"	14	20	"left"	"Ilse"	"14:24:51"	"female"	55	1	5	1	5	0	5185	"cintre"	"1"	"-spelling"	2
"14_1"	14	20	"left"	"Ilse"	"14:24:51"	"female"	56	1	5	1	1	1	3888	"chameau"	"1"	"-spelling"	2
"14_1"	14	20	"left"	"Ilse"	"14:24:51"	"female"	30	1	5	1	5	0	1138	"lézard"	"1"	"-spelling"	2
"14_1"	14	20	"left"	"Ilse"	"14:24:51"	"female"	31	5	1	5	1	0	1421	"sacher"	"1"	"-spelling"	2
"14_1"	14	20	"left"	"Ilse"	"14:24:51"	"female"	32	1	5	1	5	0	1331	"nouer"	"1"	"-spelling"	2
"14_1"	14	20	"left"	"Ilse"	"14:24:51"	"female"	33	1	5	1	1	1	2299	"occire"	"1"	"-spelling"	2
"14_1"	14	20	"left"	"Ilse"	"14:24:51"	"female"	34	5	1	5	1	0	1459	"écouce"	"1"	"-spelling"	2
"14_1"	14	20	"left"	"Ilse"	"14:24:51"	"female"	35	5	1	5	5	1	2869	"osseaux"	"1"	"-spelling"	2
"14_1"	14	20	"left"	"Ilse"	"14:24:51"	"female"	63	1	5	1	1	1	1247	"écureuil "	"1"	"-spelling"	2
"14_1"	14	20	"left"	"Ilse"	"14:24:51"	"female"	64	1	5	1	5	0	1397	"caddie"	"1"	"-spelling"	2
"14_1"	14	20	"left"	"Ilse"	"14:24:51"	"female"	52	1	5	1	1	1	1634	"dauphin"	"1"	"-spelling"	2
"14_1"	14	20	"left"	"Ilse"	"14:24:51"	"female"	26	5	1	5	1	0	2041	"cessure"	"1"	"-spelling"	2
"14_1"	14	20	"left"	"Ilse"	"14:24:51"	"female"	27	1	5	1	1	1	1548	"clouer"	"1"	"-spelling"	2
"14_1"	14	20	"left"	"Ilse"	"14:24:51"	"female"	28	1	5	1	5	0	2092	"mappemonde"	"1"	"-spelling"	2
"14_1"	14	20	"left"	"Ilse"	"14:24:51"	"female"	29	5	1	5	1	0	998	"gloque"	"1"	"-spelling"	2
"14_1"	14	20	"left"	"Ilse"	"14:24:51"	"female"	1	1	5	1	1	1	1261	"cheveux"	"1"	"-spelling"	2
"14_1"	14	20	"left"	"Ilse"	"14:24:51"	"female"	2	5	1	5	5	1	3225	"soumon"	"1"	"-spelling"	2
"14_1"	14	20	"left"	"Ilse"	"14:24:51"	"female"	3	1	5	1	1	1	886	"cloche"	"1"	"-spelling"	2
"14_1"	14	20	"left"	"Ilse"	"14:24:51"	"female"	4	1	5	1	1	1	1487	"fascine"	"1"	"-spelling"	2
"14_1"	14	20	"left"	"Ilse"	"14:24:51"	"female"	5	5	1	5	5	1	943	"huif"	"1"	"-spelling"	2
"14_1"	14	20	"left"	"Ilse"	"14:24:51"	"female"	6	1	5	1	5	0	4189	"semonce"	"1"	"-spelling"	2
"14_1"	14	20	"left"	"Ilse"	"14:24:51"	"female"	7	1	5	1	5	0	1800	"canoter "	"1"	"-spelling"	2
"14_1"	14	20	"left"	"Ilse"	"14:24:51"	"female"	8	1	5	1	1	1	640	"infâme"	"1"	"-spelling"	2
"14_1"	14	20	"left"	"Ilse"	"14:24:51"	"female"	9	1	5	1	1	1	1199	"fourmi"	"1"	"-spelling"	2
"14_1"	14	20	"left"	"Ilse"	"14:24:51"	"female"	10	1	5	1	5	0	2329	"cadenas"	"1"	"-spelling"	2
"14_1"	14	20	"left"	"Ilse"	"14:24:51"	"female"	11	1	5	1	1	1	2616	"racaille"	"1"	"-spelling"	2
"14_1"	14	20	"left"	"Ilse"	"14:24:51"	"female"	12	5	1	5	1	0	1030	"pourcine"	"1"	"-spelling"	2
"14_1"	14	20	"left"	"Ilse"	"14:24:51"	"female"	13	1	5	1	5	0	3112	"œillet"	"1"	"-spelling"	2
"14_1"	14	20	"left"	"Ilse"	"14:24:51"	"female"	14	5	1	5	5	1	3060	"raplaner"	"1"	"-spelling"	2
"14_1"	14	20	"left"	"Ilse"	"14:24:51"	"female"	15	5	1	5	1	0	669	"plaiser"	"1"	"-spelling"	2
"14_1"	14	20	"left"	"Ilse"	"14:24:51"	"female"	16	5	1	5	1	0	3153	"cerveler"	"1"	"-spelling"	2
"14_1"	14	20	"left"	"Ilse"	"14:24:51"	"female"	17	5	1	5	1	0	898	"endifier"	"1"	"-spelling"	2
"14_1"	14	20	"left"	"Ilse"	"14:24:51"	"female"	18	5	1	5	1	0	999	"jamain"	"1"	"-spelling"	2
"14_1"	14	20	"left"	"Ilse"	"14:24:51"	"female"	19	1	5	1	5	0	1111	"ennemi"	"1"	"-spelling"	2
"14_1"	14	20	"left"	"Ilse"	"14:24:51"	"female"	20	1	5	1	1	1	1832	"pouce"	"1"	"-spelling"	2
"14_1"	14	20	"left"	"Ilse"	"14:24:51"	"female"	21	5	1	5	1	0	1330	"metter"	"1"	"-spelling"	2
"14_1"	14	20	"left"	"Ilse"	"14:24:51"	"female"	22	1	5	1	5	0	1863	"fosse"	"1"	"-spelling"	2
"14_1"	14	20	"left"	"Ilse"	"14:24:51"	"female"	23	1	5	1	1	1	2533	"inciter"	"1"	"-spelling"	2
"14_1"	14	20	"left"	"Ilse"	"14:24:51"	"female"	24	1	5	1	1	1	721	"salière"	"1"	"-spelling"	2
"14_1"	14	20	"left"	"Ilse"	"14:24:51"	"female"	25	1	5	1	1	1	2011	"fouet"	"1"	"-spelling"	2
"14_1"	14	20	"left"	"Ilse"	"14:24:51"	"female"	67	1	5	1	5	0	1560	"balai"	"1"	"-spelling"	2
"14_1"	14	20	"left"	"Ilse"	"14:24:51"	"female"	68	5	1	5	5	1	4319	"prioche"	"1"	"-spelling"	2
"14_1"	14	20	"left"	"Ilse"	"14:24:51"	"female"	69	1	5	1	5	0	818	"vicelard"	"1"	"-spelling"	2
"14_1"	14	20	"left"	"Ilse"	"14:24:51"	"female"	70	5	1	5	1	0	855	"joueux"	"1"	"-spelling"	2
"14_1"	14	20	"left"	"Ilse"	"14:24:51"	"female"	71	5	1	5	1	0	7310	"agire"	"1"	"-spelling"	2
"14_1"	14	20	"left"	"Ilse"	"14:24:51"	"female"	72	1	5	1	5	0	2026	"éventail"	"1"	"-spelling"	2
"14_1"	14	20	"left"	"Ilse"	"14:24:51"	"female"	73	5	1	5	1	0	1856	"boutard"	"1"	"-spelling"	2
"14_1"	14	20	"left"	"Ilse"	"14:24:51"	"female"	74	1	5	1	1	1	1942	"panier"	"1"	"-spelling"	2
"14_1"	14	20	"left"	"Ilse"	"14:24:51"	"female"	75	1	5	1	1	1	2212	"citrouille"	"1"	"-spelling"	2
"14_1"	14	20	"left"	"Ilse"	"14:24:51"	"female"	36	5	1	5	5	1	2819	"rejoute"	"1"	"-spelling"	2
"14_1"	14	20	"left"	"Ilse"	"14:24:51"	"female"	37	1	5	1	5	0	1222	"escroc"	"1"	"-spelling"	2
"14_1"	14	20	"left"	"Ilse"	"14:24:51"	"female"	38	1	5	1	1	1	1078	"hache"	"1"	"-spelling"	2
"14_1"	14	20	"left"	"Ilse"	"14:24:51"	"female"	39	5	1	5	1	0	1959	"parchance"	"1"	"-spelling"	2
"14_1"	14	20	"left"	"Ilse"	"14:24:51"	"female"	40	1	5	1	1	1	2543	"pinceau"	"1"	"-spelling"	2
"14_1"	14	20	"left"	"Ilse"	"14:24:51"	"female"	41	1	5	1	5	0	887	"poisson"	"1"	"-spelling"	2
"14_1"	14	20	"left"	"Ilse"	"14:24:51"	"female"	42	1	5	1	5	0	1103	"robinet"	"1"	"-spelling"	2
"14_1"	14	20	"left"	"Ilse"	"14:24:51"	"female"	43	1	5	1	1	1	2737	"amadouer"	"1"	"-spelling"	2
"14_1"	14	20	"left"	"Ilse"	"14:24:51"	"female"	81	1	5	1	5	0	1528	"église"	"1"	"-spelling"	2
"14_1"	14	20	"left"	"Ilse"	"14:24:51"	"female"	82	1	5	1	1	1	1254	"indicible"	"1"	"-spelling"	2
"14_1"	14	20	"left"	"Ilse"	"14:24:51"	"female"	83	5	1	5	1	0	1530	"réporce"	"1"	"-spelling"	2
"14_1"	14	20	"left"	"Ilse"	"14:24:51"	"female"	84	1	5	1	1	1	1015	"mignon"	"1"	"-spelling"	2
"14_1"	14	20	"left"	"Ilse"	"14:24:51"	"female"	65	5	1	5	5	1	1389	"détume"	"1"	"-spelling"	2
"14_1"	14	20	"left"	"Ilse"	"14:24:51"	"female"	66	5	1	5	1	0	1091	"oeuiller"	"1"	"-spelling"	2
"14_1"	14	20	"left"	"Ilse"	"14:24:51"	"female"	76	1	5	1	5	0	2446	"bouilloire"	"1"	"-spelling"	2
"14_1"	14	20	"left"	"Ilse"	"14:24:51"	"female"	77	5	1	5	5	1	1269	"parir"	"1"	"-spelling"	2
"14_1"	14	20	"left"	"Ilse"	"14:24:51"	"female"	78	1	5	1	5	0	1908	"remporter"	"1"	"-spelling"	2
"14_1"	14	20	"left"	"Ilse"	"14:24:51"	"female"	80	1	5	1	1	1	818	"tanin"	"1"	"-spelling"	2
"14_1"	14	20	"left"	"Ilse"	"14:24:51"	"female"	79	5	1	5	5	1	1537	"procoreux"	"1"	"-spelling"	2
"16_1"	16	22	"right"	"Jens"	"10:35:28"	"female"	1	1	5	5	5	1	2105	"cheveux"	"1"	"-spelling"	2
"16_1"	16	22	"right"	"Jens"	"10:35:28"	"female"	2	5	1	1	1	1	1370	"soumon"	"1"	"-spelling"	2
"16_1"	16	22	"right"	"Jens"	"10:35:28"	"female"	9	1	5	5	1	0	1149	"fourmi"	"1"	"-spelling"	2
"16_1"	16	22	"right"	"Jens"	"10:35:28"	"female"	10	1	5	5	1	0	881	"cadenas"	"1"	"-spelling"	2
"16_1"	16	22	"right"	"Jens"	"10:35:28"	"female"	3	1	5	5	5	1	884	"cloche"	"1"	"-spelling"	2
"16_1"	16	22	"right"	"Jens"	"10:35:28"	"female"	4	1	5	5	1	0	687	"fascine"	"1"	"-spelling"	2
"16_1"	16	22	"right"	"Jens"	"10:35:28"	"female"	14	5	1	1	1	1	733	"raplaner"	"1"	"-spelling"	2
"16_1"	16	22	"right"	"Jens"	"10:35:28"	"female"	15	5	1	1	5	0	653	"plaiser"	"1"	"-spelling"	2
"16_1"	16	22	"right"	"Jens"	"10:35:28"	"female"	16	5	1	1	1	1	1011	"cerveler"	"1"	"-spelling"	2
"16_1"	16	22	"right"	"Jens"	"10:35:28"	"female"	8	1	5	5	5	1	822	"infâme"	"1"	"-spelling"	2
"16_1"	16	22	"right"	"Jens"	"10:35:28"	"female"	21	5	1	1	5	0	694	"metter"	"1"	"-spelling"	2
"16_1"	16	22	"right"	"Jens"	"10:35:28"	"female"	22	1	5	5	5	1	705	"fosse"	"1"	"-spelling"	2
"16_1"	16	22	"right"	"Jens"	"10:35:28"	"female"	11	1	5	5	1	0	1013	"racaille"	"1"	"-spelling"	2
"16_1"	16	22	"right"	"Jens"	"10:35:28"	"female"	12	5	1	1	5	0	1021	"pourcine"	"1"	"-spelling"	2
"16_1"	16	22	"right"	"Jens"	"10:35:28"	"female"	13	1	5	5	5	1	1612	"œillet"	"1"	"-spelling"	2
"16_1"	16	22	"right"	"Jens"	"10:35:28"	"female"	26	5	1	1	5	0	1123	"cessure"	"1"	"-spelling"	2
"16_1"	16	22	"right"	"Jens"	"10:35:28"	"female"	27	1	5	5	5	1	658	"clouer"	"1"	"-spelling"	2
"16_1"	16	22	"right"	"Jens"	"10:35:28"	"female"	28	1	5	5	1	0	886	"mappemonde"	"1"	"-spelling"	2
"16_1"	16	22	"right"	"Jens"	"10:35:28"	"female"	17	5	1	1	1	1	1096	"endifier"	"1"	"-spelling"	2
"16_1"	16	22	"right"	"Jens"	"10:35:28"	"female"	5	5	1	1	1	1	975	"huif"	"1"	"-spelling"	2
"16_1"	16	22	"right"	"Jens"	"10:35:28"	"female"	6	1	5	5	1	0	897	"semonce"	"1"	"-spelling"	2
"16_1"	16	22	"right"	"Jens"	"10:35:28"	"female"	7	1	5	5	1	0	665	"canoter "	"1"	"-spelling"	2
"16_1"	16	22	"right"	"Jens"	"10:35:28"	"female"	20	1	5	5	5	1	825	"pouce"	"1"	"-spelling"	2
"16_1"	16	22	"right"	"Jens"	"10:35:28"	"female"	34	5	1	1	1	1	1205	"écouce"	"1"	"-spelling"	2
"16_1"	16	22	"right"	"Jens"	"10:35:28"	"female"	35	5	1	1	1	1	725	"osseaux"	"1"	"-spelling"	2
"16_1"	16	22	"right"	"Jens"	"10:35:28"	"female"	23	1	5	5	5	1	1496	"inciter"	"1"	"-spelling"	2
"16_1"	16	22	"right"	"Jens"	"10:35:28"	"female"	24	1	5	5	1	0	1877	"salière"	"1"	"-spelling"	2
"16_1"	16	22	"right"	"Jens"	"10:35:28"	"female"	25	1	5	5	1	0	987	"fouet"	"1"	"-spelling"	2
"16_1"	16	22	"right"	"Jens"	"10:35:28"	"female"	79	5	1	1	1	1	904	"procoreux"	"1"	"-spelling"	2
"16_1"	16	22	"right"	"Jens"	"10:35:28"	"female"	80	1	5	5	1	0	695	"tanin"	"1"	"-spelling"	2
"16_1"	16	22	"right"	"Jens"	"10:35:28"	"female"	81	1	5	5	5	1	756	"église"	"1"	"-spelling"	2
"16_1"	16	22	"right"	"Jens"	"10:35:28"	"female"	82	1	5	5	5	1	1169	"indicible"	"1"	"-spelling"	2
"16_1"	16	22	"right"	"Jens"	"10:35:28"	"female"	83	5	1	1	5	0	863	"réporce"	"1"	"-spelling"	2
"16_1"	16	22	"right"	"Jens"	"10:35:28"	"female"	84	1	5	5	5	1	603	"mignon"	"1"	"-spelling"	2
"16_1"	16	22	"right"	"Jens"	"10:35:28"	"female"	44	1	5	5	1	0	762	"peigne"	"1"	"-spelling"	2
"16_1"	16	22	"right"	"Jens"	"10:35:28"	"female"	45	5	1	1	1	1	980	"retruire"	"1"	"-spelling"	2
"16_1"	16	22	"right"	"Jens"	"10:35:28"	"female"	46	1	5	5	5	1	649	"crayon"	"1"	"-spelling"	2
"16_1"	16	22	"right"	"Jens"	"10:35:28"	"female"	47	5	1	1	1	1	1484	"sentuelle"	"1"	"-spelling"	2
"16_1"	16	22	"right"	"Jens"	"10:35:28"	"female"	48	1	5	5	1	0	839	"alourdir"	"1"	"-spelling"	2
"16_1"	16	22	"right"	"Jens"	"10:35:28"	"female"	49	1	5	5	1	0	1024	"marteau"	"1"	"-spelling"	2
"16_1"	16	22	"right"	"Jens"	"10:35:28"	"female"	50	1	5	5	1	0	639	"esquif"	"1"	"-spelling"	2
"16_1"	16	22	"right"	"Jens"	"10:35:28"	"female"	51	1	5	5	1	0	969	"treillage"	"1"	"-spelling"	2
"16_1"	16	22	"right"	"Jens"	"10:35:28"	"female"	52	1	5	5	5	1	621	"dauphin"	"1"	"-spelling"	2
"16_1"	16	22	"right"	"Jens"	"10:35:28"	"female"	53	1	5	5	1	0	954	"orgueil"	"1"	"-spelling"	2
"16_1"	16	22	"right"	"Jens"	"10:35:28"	"female"	54	1	5	5	1	0	872	"amorce"	"1"	"-spelling"	2
"16_1"	16	22	"right"	"Jens"	"10:35:28"	"female"	55	1	5	5	1	0	829	"cintre"	"1"	"-spelling"	2
"16_1"	16	22	"right"	"Jens"	"10:35:28"	"female"	56	1	5	5	1	0	921	"chameau"	"1"	"-spelling"	2
"16_1"	16	22	"right"	"Jens"	"10:35:28"	"female"	18	5	1	1	5	0	667	"jamain"	"1"	"-spelling"	2
"16_1"	16	22	"right"	"Jens"	"10:35:28"	"female"	19	1	5	5	1	0	1601	"ennemi"	"1"	"-spelling"	2
"16_1"	16	22	"right"	"Jens"	"10:35:28"	"female"	59	1	5	5	1	0	1236	"lanière"	"1"	"-spelling"	2
"16_1"	16	22	"right"	"Jens"	"10:35:28"	"female"	60	5	1	1	1	1	1289	"honteur"	"1"	"-spelling"	2
"16_1"	16	22	"right"	"Jens"	"10:35:28"	"female"	61	1	5	5	1	0	920	"abêtir"	"1"	"-spelling"	2
"16_1"	16	22	"right"	"Jens"	"10:35:28"	"female"	62	1	5	5	5	1	643	"fenêtre"	"1"	"-spelling"	2
"16_1"	16	22	"right"	"Jens"	"10:35:28"	"female"	63	1	5	5	1	0	876	"écureuil "	"1"	"-spelling"	2
"16_1"	16	22	"right"	"Jens"	"10:35:28"	"female"	64	1	5	5	1	0	688	"caddie"	"1"	"-spelling"	2
"16_1"	16	22	"right"	"Jens"	"10:35:28"	"female"	65	5	1	1	1	1	763	"détume"	"1"	"-spelling"	2
"16_1"	16	22	"right"	"Jens"	"10:35:28"	"female"	66	5	1	1	1	1	1210	"oeuiller"	"1"	"-spelling"	2
"16_1"	16	22	"right"	"Jens"	"10:35:28"	"female"	67	1	5	5	1	0	665	"balai"	"1"	"-spelling"	2
"16_1"	16	22	"right"	"Jens"	"10:35:28"	"female"	29	5	1	1	1	1	717	"gloque"	"1"	"-spelling"	2
"16_1"	16	22	"right"	"Jens"	"10:35:28"	"female"	30	1	5	5	1	0	795	"lézard"	"1"	"-spelling"	2
"16_1"	16	22	"right"	"Jens"	"10:35:28"	"female"	31	5	1	1	5	0	715	"sacher"	"1"	"-spelling"	2
"16_1"	16	22	"right"	"Jens"	"10:35:28"	"female"	32	1	5	5	5	1	1120	"nouer"	"1"	"-spelling"	2
"16_1"	16	22	"right"	"Jens"	"10:35:28"	"female"	33	1	5	5	1	0	1577	"occire"	"1"	"-spelling"	2
"16_1"	16	22	"right"	"Jens"	"10:35:28"	"female"	74	1	5	5	1	0	1491	"panier"	"1"	"-spelling"	2
"16_1"	16	22	"right"	"Jens"	"10:35:28"	"female"	75	1	5	5	1	0	1097	"citrouille"	"1"	"-spelling"	2
"16_1"	16	22	"right"	"Jens"	"10:35:28"	"female"	76	1	5	5	1	0	1934	"bouilloire"	"1"	"-spelling"	2
"16_1"	16	22	"right"	"Jens"	"10:35:28"	"female"	77	5	1	1	5	0	1331	"parir"	"1"	"-spelling"	2
"16_1"	16	22	"right"	"Jens"	"10:35:28"	"female"	78	1	5	5	1	0	1485	"remporter"	"1"	"-spelling"	2
"16_1"	16	22	"right"	"Jens"	"10:35:28"	"female"	38	1	5	5	5	1	1014	"hache"	"1"	"-spelling"	2
"16_1"	16	22	"right"	"Jens"	"10:35:28"	"female"	39	5	1	1	1	1	1180	"parchance"	"1"	"-spelling"	2
"16_1"	16	22	"right"	"Jens"	"10:35:28"	"female"	40	1	5	5	5	1	716	"pinceau"	"1"	"-spelling"	2
"16_1"	16	22	"right"	"Jens"	"10:35:28"	"female"	41	1	5	5	5	1	528	"poisson"	"1"	"-spelling"	2
"16_1"	16	22	"right"	"Jens"	"10:35:28"	"female"	42	1	5	5	1	0	672	"robinet"	"1"	"-spelling"	2
"16_1"	16	22	"right"	"Jens"	"10:35:28"	"female"	43	1	5	5	1	0	917	"amadouer"	"1"	"-spelling"	2
"16_1"	16	22	"right"	"Jens"	"10:35:28"	"female"	57	1	5	5	5	1	592	"bouton"	"1"	"-spelling"	2
"16_1"	16	22	"right"	"Jens"	"10:35:28"	"female"	58	1	5	5	1	0	1183	"capeline"	"1"	"-spelling"	2
"16_1"	16	22	"right"	"Jens"	"10:35:28"	"female"	72	1	5	5	1	0	835	"éventail"	"1"	"-spelling"	2
"16_1"	16	22	"right"	"Jens"	"10:35:28"	"female"	73	5	1	1	5	0	1178	"boutard"	"1"	"-spelling"	2
"16_1"	16	22	"right"	"Jens"	"10:35:28"	"female"	69	1	5	5	1	0	893	"vicelard"	"1"	"-spelling"	2
"16_1"	16	22	"right"	"Jens"	"10:35:28"	"female"	70	5	1	1	5	0	525	"joueux"	"1"	"-spelling"	2
"16_1"	16	22	"right"	"Jens"	"10:35:28"	"female"	36	5	1	1	1	1	637	"rejoute"	"1"	"-spelling"	2
"16_1"	16	22	"right"	"Jens"	"10:35:28"	"female"	37	1	5	5	1	0	1654	"escroc"	"1"	"-spelling"	2
"16_1"	16	22	"right"	"Jens"	"10:35:28"	"female"	71	5	1	1	5	0	906	"agire"	"1"	"-spelling"	2
"16_1"	16	22	"right"	"Jens"	"10:35:28"	"female"	68	5	1	1	5	0	1038	"prioche"	"1"	"-spelling"	2
"20_1"	20	19	"right"	"Jens"	"11:20:25"	"female"	5	5	1	1	1	1	1037	"huif"	"1"	"-spelling"	2
"20_1"	20	19	"right"	"Jens"	"11:20:25"	"female"	12	5	1	1	1	1	1334	"pourcine"	"1"	"-spelling"	2
"20_1"	20	19	"right"	"Jens"	"11:20:25"	"female"	6	1	5	5	1	0	764	"semonce"	"1"	"-spelling"	2
"20_1"	20	19	"right"	"Jens"	"11:20:25"	"female"	7	1	5	5	1	0	609	"canoter "	"1"	"-spelling"	2
"20_1"	20	19	"right"	"Jens"	"11:20:25"	"female"	4	1	5	5	1	0	1456	"fascine"	"1"	"-spelling"	2
"20_1"	20	19	"right"	"Jens"	"11:20:25"	"female"	16	5	1	1	1	1	798	"cerveler"	"1"	"-spelling"	2
"20_1"	20	19	"right"	"Jens"	"11:20:25"	"female"	1	1	5	5	5	1	1498	"cheveux"	"1"	"-spelling"	2
"20_1"	20	19	"right"	"Jens"	"11:20:25"	"female"	2	5	1	1	1	1	739	"soumon"	"1"	"-spelling"	2
"20_1"	20	19	"right"	"Jens"	"11:20:25"	"female"	3	1	5	5	5	1	886	"cloche"	"1"	"-spelling"	2
"20_1"	20	19	"right"	"Jens"	"11:20:25"	"female"	8	1	5	5	5	1	1211	"infâme"	"1"	"-spelling"	2
"20_1"	20	19	"right"	"Jens"	"11:20:25"	"female"	17	5	1	1	5	0	1170	"endifier"	"1"	"-spelling"	2
"20_1"	20	19	"right"	"Jens"	"11:20:25"	"female"	18	5	1	1	1	1	1608	"jamain"	"1"	"-spelling"	2
"20_1"	20	19	"right"	"Jens"	"11:20:25"	"female"	19	1	5	5	1	0	768	"ennemi"	"1"	"-spelling"	2
"20_1"	20	19	"right"	"Jens"	"11:20:25"	"female"	11	1	5	5	5	1	920	"racaille"	"1"	"-spelling"	2
"20_1"	20	19	"right"	"Jens"	"11:20:25"	"female"	25	1	5	5	1	0	843	"fouet"	"1"	"-spelling"	2
"20_1"	20	19	"right"	"Jens"	"11:20:25"	"female"	13	1	5	5	1	0	964	"œillet"	"1"	"-spelling"	2
"20_1"	20	19	"right"	"Jens"	"11:20:25"	"female"	14	5	1	1	5	0	1426	"raplaner"	"1"	"-spelling"	2
"20_1"	20	19	"right"	"Jens"	"11:20:25"	"female"	15	5	1	1	5	0	641	"plaiser"	"1"	"-spelling"	2
"20_1"	20	19	"right"	"Jens"	"11:20:25"	"female"	68	5	1	1	1	1	1280	"prioche"	"1"	"-spelling"	2
"20_1"	20	19	"right"	"Jens"	"11:20:25"	"female"	69	1	5	5	1	0	689	"vicelard"	"1"	"-spelling"	2
"20_1"	20	19	"right"	"Jens"	"11:20:25"	"female"	70	5	1	1	5	0	679	"joueux"	"1"	"-spelling"	2
"20_1"	20	19	"right"	"Jens"	"11:20:25"	"female"	71	5	1	1	1	1	656	"agire"	"1"	"-spelling"	2
"20_1"	20	19	"right"	"Jens"	"11:20:25"	"female"	72	1	5	5	1	0	806	"éventail"	"1"	"-spelling"	2
"20_1"	20	19	"right"	"Jens"	"11:20:25"	"female"	73	5	1	1	5	0	1194	"boutard"	"1"	"-spelling"	2
"20_1"	20	19	"right"	"Jens"	"11:20:25"	"female"	74	1	5	5	1	0	636	"panier"	"1"	"-spelling"	2
"20_1"	20	19	"right"	"Jens"	"11:20:25"	"female"	75	1	5	5	5	1	838	"citrouille"	"1"	"-spelling"	2
"20_1"	20	19	"right"	"Jens"	"11:20:25"	"female"	76	1	5	5	5	1	711	"bouilloire"	"1"	"-spelling"	2
"20_1"	20	19	"right"	"Jens"	"11:20:25"	"female"	77	5	1	1	1	1	661	"parir"	"1"	"-spelling"	2
"20_1"	20	19	"right"	"Jens"	"11:20:25"	"female"	78	1	5	5	1	0	1040	"remporter"	"1"	"-spelling"	2
"20_1"	20	19	"right"	"Jens"	"11:20:25"	"female"	79	5	1	1	5	0	1971	"procoreux"	"1"	"-spelling"	2
"20_1"	20	19	"right"	"Jens"	"11:20:25"	"female"	80	1	5	5	1	0	674	"tanin"	"1"	"-spelling"	2
"20_1"	20	19	"right"	"Jens"	"11:20:25"	"female"	81	1	5	5	5	1	664	"église"	"1"	"-spelling"	2
"20_1"	20	19	"right"	"Jens"	"11:20:25"	"female"	82	1	5	5	1	0	1423	"indicible"	"1"	"-spelling"	2
"20_1"	20	19	"right"	"Jens"	"11:20:25"	"female"	83	5	1	1	1	1	970	"réporce"	"1"	"-spelling"	2
"20_1"	20	19	"right"	"Jens"	"11:20:25"	"female"	84	1	5	5	5	1	781	"mignon"	"1"	"-spelling"	2
"20_1"	20	19	"right"	"Jens"	"11:20:25"	"female"	44	1	5	5	1	0	640	"peigne"	"1"	"-spelling"	2
"20_1"	20	19	"right"	"Jens"	"11:20:25"	"female"	45	5	1	1	5	0	950	"retruire"	"1"	"-spelling"	2
"20_1"	20	19	"right"	"Jens"	"11:20:25"	"female"	46	1	5	5	5	1	785	"crayon"	"1"	"-spelling"	2
"20_1"	20	19	"right"	"Jens"	"11:20:25"	"female"	9	1	5	5	1	0	639	"fourmi"	"1"	"-spelling"	2
"20_1"	20	19	"right"	"Jens"	"11:20:25"	"female"	10	1	5	5	1	0	734	"cadenas"	"1"	"-spelling"	2
"20_1"	20	19	"right"	"Jens"	"11:20:25"	"female"	49	1	5	5	1	0	760	"marteau"	"1"	"-spelling"	2
"20_1"	20	19	"right"	"Jens"	"11:20:25"	"female"	50	1	5	5	1	0	592	"esquif"	"1"	"-spelling"	2
"20_1"	20	19	"right"	"Jens"	"11:20:25"	"female"	51	1	5	5	1	0	655	"treillage"	"1"	"-spelling"	2
"20_1"	20	19	"right"	"Jens"	"11:20:25"	"female"	52	1	5	5	1	0	954	"dauphin"	"1"	"-spelling"	2
"20_1"	20	19	"right"	"Jens"	"11:20:25"	"female"	53	1	5	5	1	0	790	"orgueil"	"1"	"-spelling"	2
"20_1"	20	19	"right"	"Jens"	"11:20:25"	"female"	54	1	5	5	1	0	712	"amorce"	"1"	"-spelling"	2
"20_1"	20	19	"right"	"Jens"	"11:20:25"	"female"	55	1	5	5	1	0	784	"cintre"	"1"	"-spelling"	2
"20_1"	20	19	"right"	"Jens"	"11:20:25"	"female"	56	1	5	5	1	0	675	"chameau"	"1"	"-spelling"	2
"20_1"	20	19	"right"	"Jens"	"11:20:25"	"female"	57	1	5	5	5	1	784	"bouton"	"1"	"-spelling"	2
"20_1"	20	19	"right"	"Jens"	"11:20:25"	"female"	20	1	5	5	1	0	1329	"pouce"	"1"	"-spelling"	2
"20_1"	20	19	"right"	"Jens"	"11:20:25"	"female"	21	5	1	1	1	1	737	"metter"	"1"	"-spelling"	2
"20_1"	20	19	"right"	"Jens"	"11:20:25"	"female"	22	1	5	5	1	0	861	"fosse"	"1"	"-spelling"	2
"20_1"	20	19	"right"	"Jens"	"11:20:25"	"female"	23	1	5	5	5	1	1063	"inciter"	"1"	"-spelling"	2
"20_1"	20	19	"right"	"Jens"	"11:20:25"	"female"	24	1	5	5	5	1	699	"salière"	"1"	"-spelling"	2
"20_1"	20	19	"right"	"Jens"	"11:20:25"	"female"	64	1	5	5	1	0	713	"caddie"	"1"	"-spelling"	2
"20_1"	20	19	"right"	"Jens"	"11:20:25"	"female"	65	5	1	1	1	1	1470	"détume"	"1"	"-spelling"	2
"20_1"	20	19	"right"	"Jens"	"11:20:25"	"female"	66	5	1	1	5	0	547	"oeuiller"	"1"	"-spelling"	2
"20_1"	20	19	"right"	"Jens"	"11:20:25"	"female"	67	1	5	5	1	0	634	"balai"	"1"	"-spelling"	2
"20_1"	20	19	"right"	"Jens"	"11:20:25"	"female"	27	1	5	5	5	1	1032	"clouer"	"1"	"-spelling"	2
"20_1"	20	19	"right"	"Jens"	"11:20:25"	"female"	28	1	5	5	1	0	665	"mappemonde"	"1"	"-spelling"	2
"20_1"	20	19	"right"	"Jens"	"11:20:25"	"female"	29	5	1	1	1	1	842	"gloque"	"1"	"-spelling"	2
"20_1"	20	19	"right"	"Jens"	"11:20:25"	"female"	30	1	5	5	1	0	964	"lézard"	"1"	"-spelling"	2
"20_1"	20	19	"right"	"Jens"	"11:20:25"	"female"	31	5	1	1	5	0	748	"sacher"	"1"	"-spelling"	2
"20_1"	20	19	"right"	"Jens"	"11:20:25"	"female"	32	1	5	5	1	0	870	"nouer"	"1"	"-spelling"	2
"20_1"	20	19	"right"	"Jens"	"11:20:25"	"female"	33	1	5	5	1	0	904	"occire"	"1"	"-spelling"	2
"20_1"	20	19	"right"	"Jens"	"11:20:25"	"female"	34	5	1	1	5	0	932	"écouce"	"1"	"-spelling"	2
"20_1"	20	19	"right"	"Jens"	"11:20:25"	"female"	35	5	1	1	1	1	603	"osseaux"	"1"	"-spelling"	2
"20_1"	20	19	"right"	"Jens"	"11:20:25"	"female"	36	5	1	1	1	1	673	"rejoute"	"1"	"-spelling"	2
"20_1"	20	19	"right"	"Jens"	"11:20:25"	"female"	37	1	5	5	1	0	678	"escroc"	"1"	"-spelling"	2
"20_1"	20	19	"right"	"Jens"	"11:20:25"	"female"	38	1	5	5	1	0	900	"hache"	"1"	"-spelling"	2
"20_1"	20	19	"right"	"Jens"	"11:20:25"	"female"	39	5	1	1	1	1	820	"parchance"	"1"	"-spelling"	2
"20_1"	20	19	"right"	"Jens"	"11:20:25"	"female"	40	1	5	5	1	0	660	"pinceau"	"1"	"-spelling"	2
"20_1"	20	19	"right"	"Jens"	"11:20:25"	"female"	41	1	5	5	5	1	745	"poisson"	"1"	"-spelling"	2
"20_1"	20	19	"right"	"Jens"	"11:20:25"	"female"	42	1	5	5	1	0	933	"robinet"	"1"	"-spelling"	2
"20_1"	20	19	"right"	"Jens"	"11:20:25"	"female"	43	1	5	5	1	0	660	"amadouer"	"1"	"-spelling"	2
"20_1"	20	19	"right"	"Jens"	"11:20:25"	"female"	48	1	5	5	1	0	622	"alourdir"	"1"	"-spelling"	2
"20_1"	20	19	"right"	"Jens"	"11:20:25"	"female"	58	1	5	5	1	0	676	"capeline"	"1"	"-spelling"	2
"20_1"	20	19	"right"	"Jens"	"11:20:25"	"female"	59	1	5	5	1	0	569	"lanière"	"1"	"-spelling"	2
"20_1"	20	19	"right"	"Jens"	"11:20:25"	"female"	47	5	1	1	1	1	625	"sentuelle"	"1"	"-spelling"	2
"20_1"	20	19	"right"	"Jens"	"11:20:25"	"female"	60	5	1	1	1	1	734	"honteur"	"1"	"-spelling"	2
"20_1"	20	19	"right"	"Jens"	"11:20:25"	"female"	62	1	5	5	1	0	636	"fenêtre"	"1"	"-spelling"	2
"20_1"	20	19	"right"	"Jens"	"11:20:25"	"female"	63	1	5	5	1	0	1426	"écureuil "	"1"	"-spelling"	2
"20_1"	20	19	"right"	"Jens"	"11:20:25"	"female"	26	5	1	1	1	1	704	"cessure"	"1"	"-spelling"	2
"20_1"	20	19	"right"	"Jens"	"11:20:25"	"female"	61	1	5	5	1	0	872	"abêtir"	"1"	"-spelling"	2
"22_1"	22	20	"right"	"Jens"	"13:20:34"	"female"	47	5	1	1	5	0	747	"sentuelle"	"1"	"-spelling"	2
"22_1"	22	20	"right"	"Jens"	"13:20:34"	"female"	48	1	5	5	1	0	636	"alourdir"	"1"	"-spelling"	2
"22_1"	22	20	"right"	"Jens"	"13:20:34"	"female"	46	1	5	5	5	1	849	"crayon"	"1"	"-spelling"	2
"22_1"	22	20	"right"	"Jens"	"13:20:34"	"female"	51	1	5	5	1	0	1295	"treillage"	"1"	"-spelling"	2
"22_1"	22	20	"right"	"Jens"	"13:20:34"	"female"	52	1	5	5	5	1	625	"dauphin"	"1"	"-spelling"	2
"22_1"	22	20	"right"	"Jens"	"13:20:34"	"female"	53	1	5	5	5	1	560	"orgueil"	"1"	"-spelling"	2
"22_1"	22	20	"right"	"Jens"	"13:20:34"	"female"	45	5	1	1	1	1	651	"retruire"	"1"	"-spelling"	2
"22_1"	22	20	"right"	"Jens"	"13:20:34"	"female"	18	5	1	1	5	0	823	"jamain"	"1"	"-spelling"	2
"22_1"	22	20	"right"	"Jens"	"13:20:34"	"female"	19	1	5	5	1	0	626	"ennemi"	"1"	"-spelling"	2
"22_1"	22	20	"right"	"Jens"	"13:20:34"	"female"	20	1	5	5	5	1	610	"pouce"	"1"	"-spelling"	2
"22_1"	22	20	"right"	"Jens"	"13:20:34"	"female"	49	1	5	5	1	0	597	"marteau"	"1"	"-spelling"	2
"22_1"	22	20	"right"	"Jens"	"13:20:34"	"female"	50	1	5	5	1	0	613	"esquif"	"1"	"-spelling"	2
"22_1"	22	20	"right"	"Jens"	"13:20:34"	"female"	63	1	5	5	5	1	1188	"écureuil "	"1"	"-spelling"	2
"22_1"	22	20	"right"	"Jens"	"13:20:34"	"female"	64	1	5	5	1	0	717	"caddie"	"1"	"-spelling"	2
"22_1"	22	20	"right"	"Jens"	"13:20:34"	"female"	65	5	1	1	5	0	1276	"détume"	"1"	"-spelling"	2
"22_1"	22	20	"right"	"Jens"	"13:20:34"	"female"	66	5	1	1	5	0	1060	"oeuiller"	"1"	"-spelling"	2
"22_1"	22	20	"right"	"Jens"	"13:20:34"	"female"	67	1	5	5	5	1	493	"balai"	"1"	"-spelling"	2
"22_1"	22	20	"right"	"Jens"	"13:20:34"	"female"	68	5	1	1	5	0	767	"prioche"	"1"	"-spelling"	2
"22_1"	22	20	"right"	"Jens"	"13:20:34"	"female"	69	1	5	5	1	0	922	"vicelard"	"1"	"-spelling"	2
"22_1"	22	20	"right"	"Jens"	"13:20:34"	"female"	70	5	1	1	5	0	740	"joueux"	"1"	"-spelling"	2
"22_1"	22	20	"right"	"Jens"	"13:20:34"	"female"	71	5	1	1	5	0	828	"agire"	"1"	"-spelling"	2
"22_1"	22	20	"right"	"Jens"	"13:20:34"	"female"	72	1	5	5	1	0	821	"éventail"	"1"	"-spelling"	2
"22_1"	22	20	"right"	"Jens"	"13:20:34"	"female"	73	5	1	1	1	1	739	"boutard"	"1"	"-spelling"	2
"22_1"	22	20	"right"	"Jens"	"13:20:34"	"female"	74	1	5	5	1	0	848	"panier"	"1"	"-spelling"	2
"22_1"	22	20	"right"	"Jens"	"13:20:34"	"female"	75	1	5	5	1	0	1057	"citrouille"	"1"	"-spelling"	2
"22_1"	22	20	"right"	"Jens"	"13:20:34"	"female"	76	1	5	5	5	1	1190	"bouilloire"	"1"	"-spelling"	2
"22_1"	22	20	"right"	"Jens"	"13:20:34"	"female"	77	5	1	1	5	0	940	"parir"	"1"	"-spelling"	2
"22_1"	22	20	"right"	"Jens"	"13:20:34"	"female"	78	1	5	5	5	1	973	"remporter"	"1"	"-spelling"	2
"22_1"	22	20	"right"	"Jens"	"13:20:34"	"female"	79	5	1	1	1	1	590	"procoreux"	"1"	"-spelling"	2
"22_1"	22	20	"right"	"Jens"	"13:20:34"	"female"	80	1	5	5	1	0	653	"tanin"	"1"	"-spelling"	2
"22_1"	22	20	"right"	"Jens"	"13:20:34"	"female"	81	1	5	5	5	1	962	"église"	"1"	"-spelling"	2
"22_1"	22	20	"right"	"Jens"	"13:20:34"	"female"	42	1	5	5	5	1	841	"robinet"	"1"	"-spelling"	2
"22_1"	22	20	"right"	"Jens"	"13:20:34"	"female"	43	1	5	5	5	1	619	"amadouer"	"1"	"-spelling"	2
"22_1"	22	20	"right"	"Jens"	"13:20:34"	"female"	44	1	5	5	5	1	713	"peigne"	"1"	"-spelling"	2
"22_1"	22	20	"right"	"Jens"	"13:20:34"	"female"	82	1	5	5	1	0	1049	"indicible"	"1"	"-spelling"	2
"22_1"	22	20	"right"	"Jens"	"13:20:34"	"female"	83	5	1	1	1	1	769	"réporce"	"1"	"-spelling"	2
"22_1"	22	20	"right"	"Jens"	"13:20:34"	"female"	84	1	5	5	1	0	825	"mignon"	"1"	"-spelling"	2
"22_1"	22	20	"right"	"Jens"	"13:20:34"	"female"	7	1	5	5	5	1	822	"canoter "	"1"	"-spelling"	2
"22_1"	22	20	"right"	"Jens"	"13:20:34"	"female"	8	1	5	5	1	0	1059	"infâme"	"1"	"-spelling"	2
"22_1"	22	20	"right"	"Jens"	"13:20:34"	"female"	9	1	5	5	1	0	732	"fourmi"	"1"	"-spelling"	2
"22_1"	22	20	"right"	"Jens"	"13:20:34"	"female"	10	1	5	5	1	0	1001	"cadenas"	"1"	"-spelling"	2
"22_1"	22	20	"right"	"Jens"	"13:20:34"	"female"	11	1	5	5	5	1	503	"racaille"	"1"	"-spelling"	2
"22_1"	22	20	"right"	"Jens"	"13:20:34"	"female"	12	5	1	1	5	0	621	"pourcine"	"1"	"-spelling"	2
"22_1"	22	20	"right"	"Jens"	"13:20:34"	"female"	13	1	5	5	1	0	1341	"œillet"	"1"	"-spelling"	2
"22_1"	22	20	"right"	"Jens"	"13:20:34"	"female"	54	1	5	5	5	1	982	"amorce"	"1"	"-spelling"	2
"22_1"	22	20	"right"	"Jens"	"13:20:34"	"female"	55	1	5	5	5	1	722	"cintre"	"1"	"-spelling"	2
"22_1"	22	20	"right"	"Jens"	"13:20:34"	"female"	56	1	5	5	5	1	577	"chameau"	"1"	"-spelling"	2
"22_1"	22	20	"right"	"Jens"	"13:20:34"	"female"	57	1	5	5	5	1	685	"bouton"	"1"	"-spelling"	2
"22_1"	22	20	"right"	"Jens"	"13:20:34"	"female"	58	1	5	5	1	0	682	"capeline"	"1"	"-spelling"	2
"22_1"	22	20	"right"	"Jens"	"13:20:34"	"female"	59	1	5	5	5	1	870	"lanière"	"1"	"-spelling"	2
"22_1"	22	20	"right"	"Jens"	"13:20:34"	"female"	21	5	1	1	1	1	582	"metter"	"1"	"-spelling"	2
"22_1"	22	20	"right"	"Jens"	"13:20:34"	"female"	22	1	5	5	1	0	667	"fosse"	"1"	"-spelling"	2
"22_1"	22	20	"right"	"Jens"	"13:20:34"	"female"	23	1	5	5	5	1	836	"inciter"	"1"	"-spelling"	2
"22_1"	22	20	"right"	"Jens"	"13:20:34"	"female"	24	1	5	5	5	1	697	"salière"	"1"	"-spelling"	2
"22_1"	22	20	"right"	"Jens"	"13:20:34"	"female"	25	1	5	5	5	1	688	"fouet"	"1"	"-spelling"	2
"22_1"	22	20	"right"	"Jens"	"13:20:34"	"female"	26	5	1	1	5	0	906	"cessure"	"1"	"-spelling"	2
"22_1"	22	20	"right"	"Jens"	"13:20:34"	"female"	27	1	5	5	1	0	957	"clouer"	"1"	"-spelling"	2
"22_1"	22	20	"right"	"Jens"	"13:20:34"	"female"	28	1	5	5	1	0	891	"mappemonde"	"1"	"-spelling"	2
"22_1"	22	20	"right"	"Jens"	"13:20:34"	"female"	29	5	1	1	1	1	799	"gloque"	"1"	"-spelling"	2
"22_1"	22	20	"right"	"Jens"	"13:20:34"	"female"	30	1	5	5	5	1	708	"lézard"	"1"	"-spelling"	2
"22_1"	22	20	"right"	"Jens"	"13:20:34"	"female"	31	5	1	1	5	0	569	"sacher"	"1"	"-spelling"	2
"22_1"	22	20	"right"	"Jens"	"13:20:34"	"female"	32	1	5	5	5	1	525	"nouer"	"1"	"-spelling"	2
"22_1"	22	20	"right"	"Jens"	"13:20:34"	"female"	33	1	5	5	1	0	737	"occire"	"1"	"-spelling"	2
"22_1"	22	20	"right"	"Jens"	"13:20:34"	"female"	34	5	1	1	5	0	496	"écouce"	"1"	"-spelling"	2
"22_1"	22	20	"right"	"Jens"	"13:20:34"	"female"	35	5	1	1	1	1	999	"osseaux"	"1"	"-spelling"	2
"22_1"	22	20	"right"	"Jens"	"13:20:34"	"female"	36	5	1	1	1	1	740	"rejoute"	"1"	"-spelling"	2
"22_1"	22	20	"right"	"Jens"	"13:20:34"	"female"	37	1	5	5	1	0	671	"escroc"	"1"	"-spelling"	2
"22_1"	22	20	"right"	"Jens"	"13:20:34"	"female"	38	1	5	5	5	1	750	"hache"	"1"	"-spelling"	2
"22_1"	22	20	"right"	"Jens"	"13:20:34"	"female"	39	5	1	1	1	1	1010	"parchance"	"1"	"-spelling"	2
"22_1"	22	20	"right"	"Jens"	"13:20:34"	"female"	40	1	5	5	5	1	582	"pinceau"	"1"	"-spelling"	2
"22_1"	22	20	"right"	"Jens"	"13:20:34"	"female"	41	1	5	5	5	1	539	"poisson"	"1"	"-spelling"	2
"22_1"	22	20	"right"	"Jens"	"13:20:34"	"female"	1	1	5	5	5	1	2523	"cheveux"	"1"	"-spelling"	2
"22_1"	22	20	"right"	"Jens"	"13:20:34"	"female"	2	5	1	1	1	1	939	"soumon"	"1"	"-spelling"	2
"22_1"	22	20	"right"	"Jens"	"13:20:34"	"female"	3	1	5	5	1	0	857	"cloche"	"1"	"-spelling"	2
"22_1"	22	20	"right"	"Jens"	"13:20:34"	"female"	4	1	5	5	5	1	659	"fascine"	"1"	"-spelling"	2
"22_1"	22	20	"right"	"Jens"	"13:20:34"	"female"	5	5	1	1	1	1	737	"huif"	"1"	"-spelling"	2
"22_1"	22	20	"right"	"Jens"	"13:20:34"	"female"	6	1	5	5	1	0	601	"semonce"	"1"	"-spelling"	2
"22_1"	22	20	"right"	"Jens"	"13:20:34"	"female"	60	5	1	1	1	1	808	"honteur"	"1"	"-spelling"	2
"22_1"	22	20	"right"	"Jens"	"13:20:34"	"female"	61	1	5	5	1	0	678	"abêtir"	"1"	"-spelling"	2
"22_1"	22	20	"right"	"Jens"	"13:20:34"	"female"	62	1	5	5	5	1	860	"fenêtre"	"1"	"-spelling"	2
"22_1"	22	20	"right"	"Jens"	"13:20:34"	"female"	14	5	1	1	5	0	1386	"raplaner"	"1"	"-spelling"	2
"22_1"	22	20	"right"	"Jens"	"13:20:34"	"female"	15	5	1	1	5	0	665	"plaiser"	"1"	"-spelling"	2
"22_1"	22	20	"right"	"Jens"	"13:20:34"	"female"	16	5	1	1	5	0	1008	"cerveler"	"1"	"-spelling"	2
"22_1"	22	20	"right"	"Jens"	"13:20:34"	"female"	17	5	1	1	5	0	793	"endifier"	"1"	"-spelling"	2
"24_1"	24	21	"right"	"Jens"	"12:52:44"	"male"	7	1	5	5	5	1	890	"canoter "	"1"	"-spelling"	2
"24_1"	24	21	"right"	"Jens"	"12:52:44"	"male"	4	1	5	5	5	1	1217	"fascine"	"1"	"-spelling"	2
"24_1"	24	21	"right"	"Jens"	"12:52:44"	"male"	6	1	5	5	1	0	1179	"semonce"	"1"	"-spelling"	2
"24_1"	24	21	"right"	"Jens"	"12:52:44"	"male"	2	5	1	1	1	1	1577	"soumon"	"1"	"-spelling"	2
"24_1"	24	21	"right"	"Jens"	"12:52:44"	"male"	3	1	5	5	1	0	1228	"cloche"	"1"	"-spelling"	2
"24_1"	24	21	"right"	"Jens"	"12:52:44"	"male"	5	5	1	1	1	1	1188	"huif"	"1"	"-spelling"	2
"24_1"	24	21	"right"	"Jens"	"12:52:44"	"male"	1	1	5	5	5	1	2754	"cheveux"	"1"	"-spelling"	2
"24_1"	24	21	"right"	"Jens"	"12:52:44"	"male"	19	1	5	5	5	1	2041	"ennemi"	"1"	"-spelling"	2
"24_1"	24	21	"right"	"Jens"	"12:52:44"	"male"	20	1	5	5	1	0	1188	"pouce"	"1"	"-spelling"	2
"24_1"	24	21	"right"	"Jens"	"12:52:44"	"male"	17	5	1	1	5	0	1394	"endifier"	"1"	"-spelling"	2
"24_1"	24	21	"right"	"Jens"	"12:52:44"	"male"	18	5	1	1	5	0	1557	"jamain"	"1"	"-spelling"	2
"24_1"	24	21	"right"	"Jens"	"12:52:44"	"male"	23	1	5	5	1	0	2038	"inciter"	"1"	"-spelling"	2
"24_1"	24	21	"right"	"Jens"	"12:52:44"	"male"	24	1	5	5	5	1	1128	"salière"	"1"	"-spelling"	2
"24_1"	24	21	"right"	"Jens"	"12:52:44"	"male"	21	5	1	1	5	0	1023	"metter"	"1"	"-spelling"	2
"24_1"	24	21	"right"	"Jens"	"12:52:44"	"male"	22	1	5	5	1	0	2742	"fosse"	"1"	"-spelling"	2
"24_1"	24	21	"right"	"Jens"	"12:52:44"	"male"	13	1	5	5	1	0	4086	"œillet"	"1"	"-spelling"	2
"24_1"	24	21	"right"	"Jens"	"12:52:44"	"male"	28	1	5	5	1	0	5685	"mappemonde"	"1"	"-spelling"	2
"24_1"	24	21	"right"	"Jens"	"12:52:44"	"male"	29	5	1	1	1	1	935	"gloque"	"1"	"-spelling"	2
"24_1"	24	21	"right"	"Jens"	"12:52:44"	"male"	30	1	5	5	5	1	1748	"lézard"	"1"	"-spelling"	2
"24_1"	24	21	"right"	"Jens"	"12:52:44"	"male"	31	5	1	1	5	0	1466	"sacher"	"1"	"-spelling"	2
"24_1"	24	21	"right"	"Jens"	"12:52:44"	"male"	32	1	5	5	5	1	2349	"nouer"	"1"	"-spelling"	2
"24_1"	24	21	"right"	"Jens"	"12:52:44"	"male"	33	1	5	5	1	0	5760	"occire"	"1"	"-spelling"	2
"24_1"	24	21	"right"	"Jens"	"12:52:44"	"male"	34	5	1	1	5	0	3926	"écouce"	"1"	"-spelling"	2
"24_1"	24	21	"right"	"Jens"	"12:52:44"	"male"	35	5	1	1	5	0	3431	"osseaux"	"1"	"-spelling"	2
"24_1"	24	21	"right"	"Jens"	"12:52:44"	"male"	36	5	1	1	1	1	1758	"rejoute"	"1"	"-spelling"	2
"24_1"	24	21	"right"	"Jens"	"12:52:44"	"male"	37	1	5	5	1	0	1727	"escroc"	"1"	"-spelling"	2
"24_1"	24	21	"right"	"Jens"	"12:52:44"	"male"	25	1	5	5	1	0	1446	"fouet"	"1"	"-spelling"	2
"24_1"	24	21	"right"	"Jens"	"12:52:44"	"male"	26	5	1	1	5	0	1993	"cessure"	"1"	"-spelling"	2
"24_1"	24	21	"right"	"Jens"	"12:52:44"	"male"	27	1	5	5	5	1	1368	"clouer"	"1"	"-spelling"	2
"24_1"	24	21	"right"	"Jens"	"12:52:44"	"male"	40	1	5	5	1	0	2746	"pinceau"	"1"	"-spelling"	2
"24_1"	24	21	"right"	"Jens"	"12:52:44"	"male"	41	1	5	5	5	1	834	"poisson"	"1"	"-spelling"	2
"24_1"	24	21	"right"	"Jens"	"12:52:44"	"male"	42	1	5	5	1	0	2746	"robinet"	"1"	"-spelling"	2
"24_1"	24	21	"right"	"Jens"	"12:52:44"	"male"	43	1	5	5	5	1	2715	"amadouer"	"1"	"-spelling"	2
"24_1"	24	21	"right"	"Jens"	"12:52:44"	"male"	44	1	5	5	1	0	905	"peigne"	"1"	"-spelling"	2
"24_1"	24	21	"right"	"Jens"	"12:52:44"	"male"	45	5	1	1	1	1	2297	"retruire"	"1"	"-spelling"	2
"24_1"	24	21	"right"	"Jens"	"12:52:44"	"male"	46	1	5	5	5	1	895	"crayon"	"1"	"-spelling"	2
"24_1"	24	21	"right"	"Jens"	"12:52:44"	"male"	47	5	1	1	5	0	1157	"sentuelle"	"1"	"-spelling"	2
"24_1"	24	21	"right"	"Jens"	"12:52:44"	"male"	8	1	5	5	5	1	1502	"infâme"	"1"	"-spelling"	2
"24_1"	24	21	"right"	"Jens"	"12:52:44"	"male"	9	1	5	5	1	0	772	"fourmi"	"1"	"-spelling"	2
"24_1"	24	21	"right"	"Jens"	"12:52:44"	"male"	10	1	5	5	1	0	1196	"cadenas"	"1"	"-spelling"	2
"24_1"	24	21	"right"	"Jens"	"12:52:44"	"male"	11	1	5	5	1	0	2076	"racaille"	"1"	"-spelling"	2
"24_1"	24	21	"right"	"Jens"	"12:52:44"	"male"	12	5	1	1	5	0	794	"pourcine"	"1"	"-spelling"	2
"24_1"	24	21	"right"	"Jens"	"12:52:44"	"male"	53	1	5	5	1	0	1092	"orgueil"	"1"	"-spelling"	2
"24_1"	24	21	"right"	"Jens"	"12:52:44"	"male"	14	5	1	1	1	1	4080	"raplaner"	"1"	"-spelling"	2
"24_1"	24	21	"right"	"Jens"	"12:52:44"	"male"	15	5	1	1	5	0	834	"plaiser"	"1"	"-spelling"	2
"24_1"	24	21	"right"	"Jens"	"12:52:44"	"male"	16	5	1	1	1	1	2971	"cerveler"	"1"	"-spelling"	2
"24_1"	24	21	"right"	"Jens"	"12:52:44"	"male"	55	1	5	5	1	0	1233	"cintre"	"1"	"-spelling"	2
"24_1"	24	21	"right"	"Jens"	"12:52:44"	"male"	56	1	5	5	5	1	2079	"chameau"	"1"	"-spelling"	2
"24_1"	24	21	"right"	"Jens"	"12:52:44"	"male"	57	1	5	5	1	0	2463	"bouton"	"1"	"-spelling"	2
"24_1"	24	21	"right"	"Jens"	"12:52:44"	"male"	58	1	5	5	1	0	909	"capeline"	"1"	"-spelling"	2
"24_1"	24	21	"right"	"Jens"	"12:52:44"	"male"	59	1	5	5	5	1	1847	"lanière"	"1"	"-spelling"	2
"24_1"	24	21	"right"	"Jens"	"12:52:44"	"male"	60	5	1	1	1	1	878	"honteur"	"1"	"-spelling"	2
"24_1"	24	21	"right"	"Jens"	"12:52:44"	"male"	61	1	5	5	1	0	1160	"abêtir"	"1"	"-spelling"	2
"24_1"	24	21	"right"	"Jens"	"12:52:44"	"male"	62	1	5	5	5	1	1771	"fenêtre"	"1"	"-spelling"	2
"24_1"	24	21	"right"	"Jens"	"12:52:44"	"male"	63	1	5	5	1	0	1571	"écureuil "	"1"	"-spelling"	2
"24_1"	24	21	"right"	"Jens"	"12:52:44"	"male"	64	1	5	5	1	0	922	"caddie"	"1"	"-spelling"	2
"24_1"	24	21	"right"	"Jens"	"12:52:44"	"male"	65	5	1	1	1	1	1303	"détume"	"1"	"-spelling"	2
"24_1"	24	21	"right"	"Jens"	"12:52:44"	"male"	66	5	1	1	5	0	1707	"oeuiller"	"1"	"-spelling"	2
"24_1"	24	21	"right"	"Jens"	"12:52:44"	"male"	67	1	5	5	1	0	1619	"balai"	"1"	"-spelling"	2
"24_1"	24	21	"right"	"Jens"	"12:52:44"	"male"	68	5	1	1	1	1	892	"prioche"	"1"	"-spelling"	2
"24_1"	24	21	"right"	"Jens"	"12:52:44"	"male"	69	1	5	5	1	0	4315	"vicelard"	"1"	"-spelling"	2
"24_1"	24	21	"right"	"Jens"	"12:52:44"	"male"	70	5	1	1	5	0	1633	"joueux"	"1"	"-spelling"	2
"24_1"	24	21	"right"	"Jens"	"12:52:44"	"male"	71	5	1	1	5	0	2064	"agire"	"1"	"-spelling"	2
"24_1"	24	21	"right"	"Jens"	"12:52:44"	"male"	72	1	5	5	1	0	1689	"éventail"	"1"	"-spelling"	2
"24_1"	24	21	"right"	"Jens"	"12:52:44"	"male"	73	5	1	1	5	0	1614	"boutard"	"1"	"-spelling"	2
"24_1"	24	21	"right"	"Jens"	"12:52:44"	"male"	74	1	5	5	1	0	3411	"panier"	"1"	"-spelling"	2
"24_1"	24	21	"right"	"Jens"	"12:52:44"	"male"	75	1	5	5	1	0	3322	"citrouille"	"1"	"-spelling"	2
"24_1"	24	21	"right"	"Jens"	"12:52:44"	"male"	38	1	5	5	5	1	2027	"hache"	"1"	"-spelling"	2
"24_1"	24	21	"right"	"Jens"	"12:52:44"	"male"	39	5	1	1	5	0	1922	"parchance"	"1"	"-spelling"	2
"24_1"	24	21	"right"	"Jens"	"12:52:44"	"male"	78	1	5	5	5	1	1741	"remporter"	"1"	"-spelling"	2
"24_1"	24	21	"right"	"Jens"	"12:52:44"	"male"	79	5	1	1	5	0	2065	"procoreux"	"1"	"-spelling"	2
"24_1"	24	21	"right"	"Jens"	"12:52:44"	"male"	80	1	5	5	1	0	1724	"tanin"	"1"	"-spelling"	2
"24_1"	24	21	"right"	"Jens"	"12:52:44"	"male"	81	1	5	5	5	1	1388	"église"	"1"	"-spelling"	2
"24_1"	24	21	"right"	"Jens"	"12:52:44"	"male"	82	1	5	5	5	1	1317	"indicible"	"1"	"-spelling"	2
"24_1"	24	21	"right"	"Jens"	"12:52:44"	"male"	83	5	1	1	5	0	1590	"réporce"	"1"	"-spelling"	2
"24_1"	24	21	"right"	"Jens"	"12:52:44"	"male"	84	1	5	5	5	1	1228	"mignon"	"1"	"-spelling"	2
"24_1"	24	21	"right"	"Jens"	"12:52:44"	"male"	51	1	5	5	1	0	908	"treillage"	"1"	"-spelling"	2
"24_1"	24	21	"right"	"Jens"	"12:52:44"	"male"	48	1	5	5	1	0	1279	"alourdir"	"1"	"-spelling"	2
"24_1"	24	21	"right"	"Jens"	"12:52:44"	"male"	49	1	5	5	1	0	3569	"marteau"	"1"	"-spelling"	2
"24_1"	24	21	"right"	"Jens"	"12:52:44"	"male"	50	1	5	5	1	0	1044	"esquif"	"1"	"-spelling"	2
"24_1"	24	21	"right"	"Jens"	"12:52:44"	"male"	52	1	5	5	5	1	2335	"dauphin"	"1"	"-spelling"	2
"24_1"	24	21	"right"	"Jens"	"12:52:44"	"male"	77	5	1	1	5	0	1222	"parir"	"1"	"-spelling"	2
"24_1"	24	21	"right"	"Jens"	"12:52:44"	"male"	54	1	5	5	1	0	2033	"amorce"	"1"	"-spelling"	2
"24_1"	24	21	"right"	"Jens"	"12:52:44"	"male"	76	1	5	5	5	1	3595	"bouilloire"	"1"	"-spelling"	2
"250_1"	250	19	"right"	"Nadia"	"14:46:40"	"female"	4	1	5	5	1	0	862	"fascine"	"1"	"-spelling"	2
"250_1"	250	19	"right"	"Nadia"	"14:46:40"	"female"	9	1	5	5	1	0	1545	"fourmi"	"1"	"-spelling"	2
"250_1"	250	19	"right"	"Nadia"	"14:46:40"	"female"	10	1	5	5	1	0	1872	"cadenas"	"1"	"-spelling"	2
"250_1"	250	19	"right"	"Nadia"	"14:46:40"	"female"	13	1	5	5	1	0	1817	"œillet"	"1"	"-spelling"	2
"250_1"	250	19	"right"	"Nadia"	"14:46:40"	"female"	14	5	1	1	1	1	2314	"raplaner"	"1"	"-spelling"	2
"250_1"	250	19	"right"	"Nadia"	"14:46:40"	"female"	11	1	5	5	5	1	2383	"racaille"	"1"	"-spelling"	2
"250_1"	250	19	"right"	"Nadia"	"14:46:40"	"female"	8	1	5	5	1	0	1497	"infâme"	"1"	"-spelling"	2
"250_1"	250	19	"right"	"Nadia"	"14:46:40"	"female"	3	1	5	5	1	0	1001	"cloche"	"1"	"-spelling"	2
"250_1"	250	19	"right"	"Nadia"	"14:46:40"	"female"	18	5	1	1	1	1	3268	"jamain"	"1"	"-spelling"	2
"250_1"	250	19	"right"	"Nadia"	"14:46:40"	"female"	19	1	5	5	1	0	1904	"ennemi"	"1"	"-spelling"	2
"250_1"	250	19	"right"	"Nadia"	"14:46:40"	"female"	12	5	1	1	1	1	1590	"pourcine"	"1"	"-spelling"	2
"250_1"	250	19	"right"	"Nadia"	"14:46:40"	"female"	21	5	1	1	1	1	1578	"metter"	"1"	"-spelling"	2
"250_1"	250	19	"right"	"Nadia"	"14:46:40"	"female"	22	1	5	5	1	0	1296	"fosse"	"1"	"-spelling"	2
"250_1"	250	19	"right"	"Nadia"	"14:46:40"	"female"	23	1	5	5	1	0	1630	"inciter"	"1"	"-spelling"	2
"250_1"	250	19	"right"	"Nadia"	"14:46:40"	"female"	20	1	5	5	1	0	1578	"pouce"	"1"	"-spelling"	2
"250_1"	250	19	"right"	"Nadia"	"14:46:40"	"female"	25	1	5	5	1	0	2697	"fouet"	"1"	"-spelling"	2
"250_1"	250	19	"right"	"Nadia"	"14:46:40"	"female"	26	5	1	1	5	0	2499	"cessure"	"1"	"-spelling"	2
"250_1"	250	19	"right"	"Nadia"	"14:46:40"	"female"	27	1	5	5	1	0	1896	"clouer"	"1"	"-spelling"	2
"250_1"	250	19	"right"	"Nadia"	"14:46:40"	"female"	24	1	5	5	1	0	1783	"salière"	"1"	"-spelling"	2
"250_1"	250	19	"right"	"Nadia"	"14:46:40"	"female"	16	5	1	1	1	1	2286	"cerveler"	"1"	"-spelling"	2
"250_1"	250	19	"right"	"Nadia"	"14:46:40"	"female"	17	5	1	1	1	1	1857	"endifier"	"1"	"-spelling"	2
"250_1"	250	19	"right"	"Nadia"	"14:46:40"	"female"	29	5	1	1	1	1	1585	"gloque"	"1"	"-spelling"	2
"250_1"	250	19	"right"	"Nadia"	"14:46:40"	"female"	30	1	5	5	1	0	1618	"lézard"	"1"	"-spelling"	2
"250_1"	250	19	"right"	"Nadia"	"14:46:40"	"female"	31	5	1	1	1	1	2143	"sacher"	"1"	"-spelling"	2
"250_1"	250	19	"right"	"Nadia"	"14:46:40"	"female"	32	1	5	5	1	0	1743	"nouer"	"1"	"-spelling"	2
"250_1"	250	19	"right"	"Nadia"	"14:46:40"	"female"	33	1	5	5	1	0	2006	"occire"	"1"	"-spelling"	2
"250_1"	250	19	"right"	"Nadia"	"14:46:40"	"female"	34	5	1	1	1	1	1754	"écouce"	"1"	"-spelling"	2
"250_1"	250	19	"right"	"Nadia"	"14:46:40"	"female"	35	5	1	1	1	1	1674	"osseaux"	"1"	"-spelling"	2
"250_1"	250	19	"right"	"Nadia"	"14:46:40"	"female"	36	5	1	1	1	1	1606	"rejoute"	"1"	"-spelling"	2
"250_1"	250	19	"right"	"Nadia"	"14:46:40"	"female"	37	1	5	5	1	0	1618	"escroc"	"1"	"-spelling"	2
"250_1"	250	19	"right"	"Nadia"	"14:46:40"	"female"	38	1	5	5	1	0	1388	"hache"	"1"	"-spelling"	2
"250_1"	250	19	"right"	"Nadia"	"14:46:40"	"female"	15	5	1	1	1	1	1759	"plaiser"	"1"	"-spelling"	2
"250_1"	250	19	"right"	"Nadia"	"14:46:40"	"female"	1	1	5	5	5	1	1898	"cheveux"	"1"	"-spelling"	2
"250_1"	250	19	"right"	"Nadia"	"14:46:40"	"female"	2	5	1	1	1	1	892	"soumon"	"1"	"-spelling"	2
"250_1"	250	19	"right"	"Nadia"	"14:46:40"	"female"	42	1	5	5	1	0	1394	"robinet"	"1"	"-spelling"	2
"250_1"	250	19	"right"	"Nadia"	"14:46:40"	"female"	43	1	5	5	1	0	2020	"amadouer"	"1"	"-spelling"	2
"250_1"	250	19	"right"	"Nadia"	"14:46:40"	"female"	5	5	1	1	1	1	732	"huif"	"1"	"-spelling"	2
"250_1"	250	19	"right"	"Nadia"	"14:46:40"	"female"	6	1	5	5	1	0	1623	"semonce"	"1"	"-spelling"	2
"250_1"	250	19	"right"	"Nadia"	"14:46:40"	"female"	7	1	5	5	1	0	1786	"canoter "	"1"	"-spelling"	2
"250_1"	250	19	"right"	"Nadia"	"14:46:40"	"female"	46	1	5	5	1	0	1747	"crayon"	"1"	"-spelling"	2
"250_1"	250	19	"right"	"Nadia"	"14:46:40"	"female"	47	5	1	1	1	1	2443	"sentuelle"	"1"	"-spelling"	2
"250_1"	250	19	"right"	"Nadia"	"14:46:40"	"female"	48	1	5	5	1	0	2372	"alourdir"	"1"	"-spelling"	2
"250_1"	250	19	"right"	"Nadia"	"14:46:40"	"female"	49	1	5	5	1	0	1461	"marteau"	"1"	"-spelling"	2
"250_1"	250	19	"right"	"Nadia"	"14:46:40"	"female"	50	1	5	5	1	0	2014	"esquif"	"1"	"-spelling"	2
"250_1"	250	19	"right"	"Nadia"	"14:46:40"	"female"	51	1	5	5	1	0	1771	"treillage"	"1"	"-spelling"	2
"250_1"	250	19	"right"	"Nadia"	"14:46:40"	"female"	52	1	5	5	1	0	2373	"dauphin"	"1"	"-spelling"	2
"250_1"	250	19	"right"	"Nadia"	"14:46:40"	"female"	53	1	5	5	1	0	2184	"orgueil"	"1"	"-spelling"	2
"250_1"	250	19	"right"	"Nadia"	"14:46:40"	"female"	54	1	5	5	1	0	2440	"amorce"	"1"	"-spelling"	2
"250_1"	250	19	"right"	"Nadia"	"14:46:40"	"female"	55	1	5	5	1	0	1694	"cintre"	"1"	"-spelling"	2
"250_1"	250	19	"right"	"Nadia"	"14:46:40"	"female"	56	1	5	5	1	0	2508	"chameau"	"1"	"-spelling"	2
"250_1"	250	19	"right"	"Nadia"	"14:46:40"	"female"	57	1	5	5	1	0	2748	"bouton"	"1"	"-spelling"	2
"250_1"	250	19	"right"	"Nadia"	"14:46:40"	"female"	58	1	5	5	1	0	1908	"capeline"	"1"	"-spelling"	2
"250_1"	250	19	"right"	"Nadia"	"14:46:40"	"female"	59	1	5	5	1	0	1755	"lanière"	"1"	"-spelling"	2
"250_1"	250	19	"right"	"Nadia"	"14:46:40"	"female"	60	5	1	1	1	1	2339	"honteur"	"1"	"-spelling"	2
"250_1"	250	19	"right"	"Nadia"	"14:46:40"	"female"	61	1	5	5	1	0	2086	"abêtir"	"1"	"-spelling"	2
"250_1"	250	19	"right"	"Nadia"	"14:46:40"	"female"	62	1	5	5	1	0	2153	"fenêtre"	"1"	"-spelling"	2
"250_1"	250	19	"right"	"Nadia"	"14:46:40"	"female"	63	1	5	5	1	0	2535	"écureuil "	"1"	"-spelling"	2
"250_1"	250	19	"right"	"Nadia"	"14:46:40"	"female"	64	1	5	5	5	1	1656	"caddie"	"1"	"-spelling"	2
"250_1"	250	19	"right"	"Nadia"	"14:46:40"	"female"	65	5	1	1	1	1	1109	"détume"	"1"	"-spelling"	2
"250_1"	250	19	"right"	"Nadia"	"14:46:40"	"female"	66	5	1	1	1	1	2305	"oeuiller"	"1"	"-spelling"	2
"250_1"	250	19	"right"	"Nadia"	"14:46:40"	"female"	28	1	5	5	1	0	3000	"mappemonde"	"1"	"-spelling"	2
"250_1"	250	19	"right"	"Nadia"	"14:46:40"	"female"	68	5	1	1	1	1	1964	"prioche"	"1"	"-spelling"	2
"250_1"	250	19	"right"	"Nadia"	"14:46:40"	"female"	69	1	5	5	1	0	1923	"vicelard"	"1"	"-spelling"	2
"250_1"	250	19	"right"	"Nadia"	"14:46:40"	"female"	70	5	1	1	5	0	1905	"joueux"	"1"	"-spelling"	2
"250_1"	250	19	"right"	"Nadia"	"14:46:40"	"female"	71	5	1	1	1	1	1449	"agire"	"1"	"-spelling"	2
"250_1"	250	19	"right"	"Nadia"	"14:46:40"	"female"	72	1	5	5	1	0	1513	"éventail"	"1"	"-spelling"	2
"250_1"	250	19	"right"	"Nadia"	"14:46:40"	"female"	73	5	1	1	1	1	1685	"boutard"	"1"	"-spelling"	2
"250_1"	250	19	"right"	"Nadia"	"14:46:40"	"female"	74	1	5	5	1	0	1454	"panier"	"1"	"-spelling"	2
"250_1"	250	19	"right"	"Nadia"	"14:46:40"	"female"	75	1	5	5	1	0	2537	"citrouille"	"1"	"-spelling"	2
"250_1"	250	19	"right"	"Nadia"	"14:46:40"	"female"	76	1	5	5	5	1	1982	"bouilloire"	"1"	"-spelling"	2
"250_1"	250	19	"right"	"Nadia"	"14:46:40"	"female"	77	5	1	1	5	0	1167	"parir"	"1"	"-spelling"	2
"250_1"	250	19	"right"	"Nadia"	"14:46:40"	"female"	39	5	1	1	1	1	1426	"parchance"	"1"	"-spelling"	2
"250_1"	250	19	"right"	"Nadia"	"14:46:40"	"female"	40	1	5	5	1	0	1396	"pinceau"	"1"	"-spelling"	2
"250_1"	250	19	"right"	"Nadia"	"14:46:40"	"female"	41	1	5	5	5	1	1720	"poisson"	"1"	"-spelling"	2
"250_1"	250	19	"right"	"Nadia"	"14:46:40"	"female"	84	1	5	5	1	0	1087	"mignon"	"1"	"-spelling"	2
"250_1"	250	19	"right"	"Nadia"	"14:46:40"	"female"	83	5	1	1	1	1	1697	"réporce"	"1"	"-spelling"	2
"250_1"	250	19	"right"	"Nadia"	"14:46:40"	"female"	82	1	5	5	1	0	1261	"indicible"	"1"	"-spelling"	2
"250_1"	250	19	"right"	"Nadia"	"14:46:40"	"female"	44	1	5	5	1	0	1784	"peigne"	"1"	"-spelling"	2
"250_1"	250	19	"right"	"Nadia"	"14:46:40"	"female"	45	5	1	1	1	1	1978	"retruire"	"1"	"-spelling"	2
"250_1"	250	19	"right"	"Nadia"	"14:46:40"	"female"	67	1	5	5	1	0	1629	"balai"	"1"	"-spelling"	2
"250_1"	250	19	"right"	"Nadia"	"14:46:40"	"female"	81	1	5	5	1	0	1038	"église"	"1"	"-spelling"	2
"250_1"	250	19	"right"	"Nadia"	"14:46:40"	"female"	78	1	5	5	5	1	1139	"remporter"	"1"	"-spelling"	2
"250_1"	250	19	"right"	"Nadia"	"14:46:40"	"female"	79	5	1	1	1	1	925	"procoreux"	"1"	"-spelling"	2
"250_1"	250	19	"right"	"Nadia"	"14:46:40"	"female"	80	1	5	5	1	0	828	"tanin"	"1"	"-spelling"	2
"252_1"	252	19	"right"	"Other"	"11:57:27"	"male"	44	1	5	5	5	1	2689	"peigne"	"1"	"-spelling"	2
"252_1"	252	19	"right"	"Other"	"11:57:27"	"male"	45	5	1	1	5	0	1608	"retruire"	"1"	"-spelling"	2
"252_1"	252	19	"right"	"Other"	"11:57:27"	"male"	83	5	1	1	5	0	1639	"réporce"	"1"	"-spelling"	2
"252_1"	252	19	"right"	"Other"	"11:57:27"	"male"	52	1	5	5	1	0	2816	"dauphin"	"1"	"-spelling"	2
"252_1"	252	19	"right"	"Other"	"11:57:27"	"male"	53	1	5	5	1	0	2202	"orgueil"	"1"	"-spelling"	2
"252_1"	252	19	"right"	"Other"	"11:57:27"	"male"	46	1	5	5	5	1	1548	"crayon"	"1"	"-spelling"	2
"252_1"	252	19	"right"	"Other"	"11:57:27"	"male"	43	1	5	5	1	0	1626	"amadouer"	"1"	"-spelling"	2
"252_1"	252	19	"right"	"Other"	"11:57:27"	"male"	56	1	5	5	5	1	920	"chameau"	"1"	"-spelling"	2
"252_1"	252	19	"right"	"Other"	"11:57:27"	"male"	57	1	5	5	5	1	946	"bouton"	"1"	"-spelling"	2
"252_1"	252	19	"right"	"Other"	"11:57:27"	"male"	54	1	5	5	1	0	4952	"amorce"	"1"	"-spelling"	2
"252_1"	252	19	"right"	"Other"	"11:57:27"	"male"	55	1	5	5	1	0	881	"cintre"	"1"	"-spelling"	2
"252_1"	252	19	"right"	"Other"	"11:57:27"	"male"	47	5	1	1	1	1	1595	"sentuelle"	"1"	"-spelling"	2
"252_1"	252	19	"right"	"Other"	"11:57:27"	"male"	48	1	5	5	1	0	1577	"alourdir"	"1"	"-spelling"	2
"252_1"	252	19	"right"	"Other"	"11:57:27"	"male"	58	1	5	5	1	0	813	"capeline"	"1"	"-spelling"	2
"252_1"	252	19	"right"	"Other"	"11:57:27"	"male"	59	1	5	5	5	1	2589	"lanière"	"1"	"-spelling"	2
"252_1"	252	19	"right"	"Other"	"11:57:27"	"male"	51	1	5	5	5	1	1475	"treillage"	"1"	"-spelling"	2
"252_1"	252	19	"right"	"Other"	"11:57:27"	"male"	66	5	1	1	5	0	7172	"oeuiller"	"1"	"-spelling"	2
"252_1"	252	19	"right"	"Other"	"11:57:27"	"male"	67	1	5	5	1	0	888	"balai"	"1"	"-spelling"	2
"252_1"	252	19	"right"	"Other"	"11:57:27"	"male"	68	5	1	1	5	0	1665	"prioche"	"1"	"-spelling"	2
"252_1"	252	19	"right"	"Other"	"11:57:27"	"male"	69	1	5	5	1	0	1724	"vicelard"	"1"	"-spelling"	2
"252_1"	252	19	"right"	"Other"	"11:57:27"	"male"	70	5	1	1	5	0	926	"joueux"	"1"	"-spelling"	2
"252_1"	252	19	"right"	"Other"	"11:57:27"	"male"	71	5	1	1	5	0	1296	"agire"	"1"	"-spelling"	2
"252_1"	252	19	"right"	"Other"	"11:57:27"	"male"	72	1	5	5	1	0	1009	"éventail"	"1"	"-spelling"	2
"252_1"	252	19	"right"	"Other"	"11:57:27"	"male"	73	5	1	1	1	1	2426	"boutard"	"1"	"-spelling"	2
"252_1"	252	19	"right"	"Other"	"11:57:27"	"male"	60	5	1	1	1	1	1692	"honteur"	"1"	"-spelling"	2
"252_1"	252	19	"right"	"Other"	"11:57:27"	"male"	61	1	5	5	5	1	2002	"abêtir"	"1"	"-spelling"	2
"252_1"	252	19	"right"	"Other"	"11:57:27"	"male"	49	1	5	5	1	0	1360	"marteau"	"1"	"-spelling"	2
"252_1"	252	19	"right"	"Other"	"11:57:27"	"male"	50	1	5	5	1	0	1522	"esquif"	"1"	"-spelling"	2
"252_1"	252	19	"right"	"Other"	"11:57:27"	"male"	65	5	1	1	5	0	2226	"détume"	"1"	"-spelling"	2
"252_1"	252	19	"right"	"Other"	"11:57:27"	"male"	38	1	5	5	1	0	1622	"hache"	"1"	"-spelling"	2
"252_1"	252	19	"right"	"Other"	"11:57:27"	"male"	39	5	1	1	5	0	4145	"parchance"	"1"	"-spelling"	2
"252_1"	252	19	"right"	"Other"	"11:57:27"	"male"	40	1	5	5	1	0	2550	"pinceau"	"1"	"-spelling"	2
"252_1"	252	19	"right"	"Other"	"11:57:27"	"male"	84	1	5	5	5	1	1300	"mignon"	"1"	"-spelling"	2
"252_1"	252	19	"right"	"Other"	"11:57:27"	"male"	42	1	5	5	1	0	855	"robinet"	"1"	"-spelling"	2
"252_1"	252	19	"right"	"Other"	"11:57:27"	"male"	2	5	1	1	1	1	1325	"soumon"	"1"	"-spelling"	2
"252_1"	252	19	"right"	"Other"	"11:57:27"	"male"	3	1	5	5	1	0	1852	"cloche"	"1"	"-spelling"	2
"252_1"	252	19	"right"	"Other"	"11:57:27"	"male"	4	1	5	5	1	0	1927	"fascine"	"1"	"-spelling"	2
"252_1"	252	19	"right"	"Other"	"11:57:27"	"male"	5	5	1	1	1	1	2191	"huif"	"1"	"-spelling"	2
"252_1"	252	19	"right"	"Other"	"11:57:27"	"male"	6	1	5	5	5	1	2461	"semonce"	"1"	"-spelling"	2
"252_1"	252	19	"right"	"Other"	"11:57:27"	"male"	7	1	5	5	1	0	1218	"canoter "	"1"	"-spelling"	2
"252_1"	252	19	"right"	"Other"	"11:57:27"	"male"	8	1	5	5	5	1	1758	"infâme"	"1"	"-spelling"	2
"252_1"	252	19	"right"	"Other"	"11:57:27"	"male"	9	1	5	5	1	0	2366	"fourmi"	"1"	"-spelling"	2
"252_1"	252	19	"right"	"Other"	"11:57:27"	"male"	10	1	5	5	1	0	2708	"cadenas"	"1"	"-spelling"	2
"252_1"	252	19	"right"	"Other"	"11:57:27"	"male"	11	1	5	5	5	1	2267	"racaille"	"1"	"-spelling"	2
"252_1"	252	19	"right"	"Other"	"11:57:27"	"male"	12	5	1	1	5	0	2151	"pourcine"	"1"	"-spelling"	2
"252_1"	252	19	"right"	"Other"	"11:57:27"	"male"	13	1	5	5	1	0	6020	"œillet"	"1"	"-spelling"	2
"252_1"	252	19	"right"	"Other"	"11:57:27"	"male"	14	5	1	1	1	1	6760	"raplaner"	"1"	"-spelling"	2
"252_1"	252	19	"right"	"Other"	"11:57:27"	"male"	15	5	1	1	5	0	2811	"plaiser"	"1"	"-spelling"	2
"252_1"	252	19	"right"	"Other"	"11:57:27"	"male"	16	5	1	1	1	1	1440	"cerveler"	"1"	"-spelling"	2
"252_1"	252	19	"right"	"Other"	"11:57:27"	"male"	17	5	1	1	1	1	1823	"endifier"	"1"	"-spelling"	2
"252_1"	252	19	"right"	"Other"	"11:57:27"	"male"	18	5	1	1	5	0	1191	"jamain"	"1"	"-spelling"	2
"252_1"	252	19	"right"	"Other"	"11:57:27"	"male"	19	1	5	5	1	0	1653	"ennemi"	"1"	"-spelling"	2
"252_1"	252	19	"right"	"Other"	"11:57:27"	"male"	20	1	5	5	5	1	1791	"pouce"	"1"	"-spelling"	2
"252_1"	252	19	"right"	"Other"	"11:57:27"	"male"	62	1	5	5	5	1	1611	"fenêtre"	"1"	"-spelling"	2
"252_1"	252	19	"right"	"Other"	"11:57:27"	"male"	63	1	5	5	1	0	2726	"écureuil "	"1"	"-spelling"	2
"252_1"	252	19	"right"	"Other"	"11:57:27"	"male"	64	1	5	5	1	0	1900	"caddie"	"1"	"-spelling"	2
"252_1"	252	19	"right"	"Other"	"11:57:27"	"male"	24	1	5	5	5	1	1154	"salière"	"1"	"-spelling"	2
"252_1"	252	19	"right"	"Other"	"11:57:27"	"male"	25	1	5	5	5	1	3479	"fouet"	"1"	"-spelling"	2
"252_1"	252	19	"right"	"Other"	"11:57:27"	"male"	26	5	1	1	1	1	2343	"cessure"	"1"	"-spelling"	2
"252_1"	252	19	"right"	"Other"	"11:57:27"	"male"	27	1	5	5	5	1	1080	"clouer"	"1"	"-spelling"	2
"252_1"	252	19	"right"	"Other"	"11:57:27"	"male"	28	1	5	5	1	0	4068	"mappemonde"	"1"	"-spelling"	2
"252_1"	252	19	"right"	"Other"	"11:57:27"	"male"	29	5	1	1	5	0	1554	"gloque"	"1"	"-spelling"	2
"252_1"	252	19	"right"	"Other"	"11:57:27"	"male"	30	1	5	5	5	1	1081	"lézard"	"1"	"-spelling"	2
"252_1"	252	19	"right"	"Other"	"11:57:27"	"male"	31	5	1	1	5	0	1744	"sacher"	"1"	"-spelling"	2
"252_1"	252	19	"right"	"Other"	"11:57:27"	"male"	32	1	5	5	5	1	1067	"nouer"	"1"	"-spelling"	2
"252_1"	252	19	"right"	"Other"	"11:57:27"	"male"	74	1	5	5	5	1	2591	"panier"	"1"	"-spelling"	2
"252_1"	252	19	"right"	"Other"	"11:57:27"	"male"	75	1	5	5	5	1	1492	"citrouille"	"1"	"-spelling"	2
"252_1"	252	19	"right"	"Other"	"11:57:27"	"male"	76	1	5	5	5	1	1929	"bouilloire"	"1"	"-spelling"	2
"252_1"	252	19	"right"	"Other"	"11:57:27"	"male"	77	5	1	1	5	0	1904	"parir"	"1"	"-spelling"	2
"252_1"	252	19	"right"	"Other"	"11:57:27"	"male"	78	1	5	5	5	1	2675	"remporter"	"1"	"-spelling"	2
"252_1"	252	19	"right"	"Other"	"11:57:27"	"male"	79	5	1	1	5	0	2790	"procoreux"	"1"	"-spelling"	2
"252_1"	252	19	"right"	"Other"	"11:57:27"	"male"	80	1	5	5	1	0	683	"tanin"	"1"	"-spelling"	2
"252_1"	252	19	"right"	"Other"	"11:57:27"	"male"	41	1	5	5	5	1	1449	"poisson"	"1"	"-spelling"	2
"252_1"	252	19	"right"	"Other"	"11:57:27"	"male"	82	1	5	5	1	0	3595	"indicible"	"1"	"-spelling"	2
"252_1"	252	19	"right"	"Other"	"11:57:27"	"male"	1	1	5	5	5	1	3654	"cheveux"	"1"	"-spelling"	2
"252_1"	252	19	"right"	"Other"	"11:57:27"	"male"	33	1	5	5	1	0	1928	"occire"	"1"	"-spelling"	2
"252_1"	252	19	"right"	"Other"	"11:57:27"	"male"	21	5	1	1	1	1	1061	"metter"	"1"	"-spelling"	2
"252_1"	252	19	"right"	"Other"	"11:57:27"	"male"	22	1	5	5	5	1	1818	"fosse"	"1"	"-spelling"	2
"252_1"	252	19	"right"	"Other"	"11:57:27"	"male"	23	1	5	5	1	0	1690	"inciter"	"1"	"-spelling"	2
"252_1"	252	19	"right"	"Other"	"11:57:27"	"male"	37	1	5	5	1	0	1353	"escroc"	"1"	"-spelling"	2
"252_1"	252	19	"right"	"Other"	"11:57:27"	"male"	34	5	1	1	5	0	2592	"écouce"	"1"	"-spelling"	2
"252_1"	252	19	"right"	"Other"	"11:57:27"	"male"	81	1	5	5	1	0	2464	"église"	"1"	"-spelling"	2
"252_1"	252	19	"right"	"Other"	"11:57:27"	"male"	36	5	1	1	5	0	2807	"rejoute"	"1"	"-spelling"	2
"252_1"	252	19	"right"	"Other"	"11:57:27"	"male"	35	5	1	1	1	1	1620	"osseaux"	"1"	"-spelling"	2
"254_1"	254	21	"right"	"Ilse"	"15:54:17"	"female"	48	1	5	5	1	0	968	"alourdir"	"1"	"-spelling"	2
"254_1"	254	21	"right"	"Ilse"	"15:54:17"	"female"	41	1	5	5	5	1	997	"poisson"	"1"	"-spelling"	2
"254_1"	254	21	"right"	"Ilse"	"15:54:17"	"female"	52	1	5	5	1	0	1884	"dauphin"	"1"	"-spelling"	2
"254_1"	254	21	"right"	"Ilse"	"15:54:17"	"female"	49	1	5	5	1	0	2873	"marteau"	"1"	"-spelling"	2
"254_1"	254	21	"right"	"Ilse"	"15:54:17"	"female"	42	1	5	5	1	0	890	"robinet"	"1"	"-spelling"	2
"254_1"	254	21	"right"	"Ilse"	"15:54:17"	"female"	43	1	5	5	5	1	1118	"amadouer"	"1"	"-spelling"	2
"254_1"	254	21	"right"	"Ilse"	"15:54:17"	"female"	53	1	5	5	1	0	2334	"orgueil"	"1"	"-spelling"	2
"254_1"	254	21	"right"	"Ilse"	"15:54:17"	"female"	54	1	5	5	5	1	915	"amorce"	"1"	"-spelling"	2
"254_1"	254	21	"right"	"Ilse"	"15:54:17"	"female"	46	1	5	5	5	1	1923	"crayon"	"1"	"-spelling"	2
"254_1"	254	21	"right"	"Ilse"	"15:54:17"	"female"	47	5	1	1	5	0	1010	"sentuelle"	"1"	"-spelling"	2
"254_1"	254	21	"right"	"Ilse"	"15:54:17"	"female"	22	1	5	5	1	0	1969	"fosse"	"1"	"-spelling"	2
"254_1"	254	21	"right"	"Ilse"	"15:54:17"	"female"	23	1	5	5	1	0	1369	"inciter"	"1"	"-spelling"	2
"254_1"	254	21	"right"	"Ilse"	"15:54:17"	"female"	50	1	5	5	1	0	1085	"esquif"	"1"	"-spelling"	2
"254_1"	254	21	"right"	"Ilse"	"15:54:17"	"female"	51	1	5	5	1	0	1238	"treillage"	"1"	"-spelling"	2
"254_1"	254	21	"right"	"Ilse"	"15:54:17"	"female"	26	5	1	1	5	0	1051	"cessure"	"1"	"-spelling"	2
"254_1"	254	21	"right"	"Ilse"	"15:54:17"	"female"	27	1	5	5	1	0	2117	"clouer"	"1"	"-spelling"	2
"254_1"	254	21	"right"	"Ilse"	"15:54:17"	"female"	28	1	5	5	5	1	1502	"mappemonde"	"1"	"-spelling"	2
"254_1"	254	21	"right"	"Ilse"	"15:54:17"	"female"	55	1	5	5	5	1	1553	"cintre"	"1"	"-spelling"	2
"254_1"	254	21	"right"	"Ilse"	"15:54:17"	"female"	56	1	5	5	5	1	1549	"chameau"	"1"	"-spelling"	2
"254_1"	254	21	"right"	"Ilse"	"15:54:17"	"female"	44	1	5	5	1	0	1390	"peigne"	"1"	"-spelling"	2
"254_1"	254	21	"right"	"Ilse"	"15:54:17"	"female"	45	5	1	1	5	0	2513	"retruire"	"1"	"-spelling"	2
"254_1"	254	21	"right"	"Ilse"	"15:54:17"	"female"	20	1	5	5	5	1	1732	"pouce"	"1"	"-spelling"	2
"254_1"	254	21	"right"	"Ilse"	"15:54:17"	"female"	21	5	1	1	1	1	1679	"metter"	"1"	"-spelling"	2
"254_1"	254	21	"right"	"Ilse"	"15:54:17"	"female"	33	1	5	5	5	1	1004	"occire"	"1"	"-spelling"	2
"254_1"	254	21	"right"	"Ilse"	"15:54:17"	"female"	34	5	1	1	5	0	1129	"écouce"	"1"	"-spelling"	2
"254_1"	254	21	"right"	"Ilse"	"15:54:17"	"female"	24	1	5	5	5	1	1386	"salière"	"1"	"-spelling"	2
"254_1"	254	21	"right"	"Ilse"	"15:54:17"	"female"	25	1	5	5	5	1	1284	"fouet"	"1"	"-spelling"	2
"254_1"	254	21	"right"	"Ilse"	"15:54:17"	"female"	38	1	5	5	5	1	1329	"hache"	"1"	"-spelling"	2
"254_1"	254	21	"right"	"Ilse"	"15:54:17"	"female"	39	5	1	1	5	0	1248	"parchance"	"1"	"-spelling"	2
"254_1"	254	21	"right"	"Ilse"	"15:54:17"	"female"	40	1	5	5	5	1	1679	"pinceau"	"1"	"-spelling"	2
"254_1"	254	21	"right"	"Ilse"	"15:54:17"	"female"	1	1	5	5	1	0	2309	"cheveux"	"1"	"-spelling"	2
"254_1"	254	21	"right"	"Ilse"	"15:54:17"	"female"	2	5	1	1	5	0	933	"soumon"	"1"	"-spelling"	2
"254_1"	254	21	"right"	"Ilse"	"15:54:17"	"female"	3	1	5	5	1	0	2793	"cloche"	"1"	"-spelling"	2
"254_1"	254	21	"right"	"Ilse"	"15:54:17"	"female"	4	1	5	5	5	1	1569	"fascine"	"1"	"-spelling"	2
"254_1"	254	21	"right"	"Ilse"	"15:54:17"	"female"	5	5	1	1	1	1	887	"huif"	"1"	"-spelling"	2
"254_1"	254	21	"right"	"Ilse"	"15:54:17"	"female"	6	1	5	5	5	1	3160	"semonce"	"1"	"-spelling"	2
"254_1"	254	21	"right"	"Ilse"	"15:54:17"	"female"	7	1	5	5	1	0	1068	"canoter "	"1"	"-spelling"	2
"254_1"	254	21	"right"	"Ilse"	"15:54:17"	"female"	8	1	5	5	5	1	1234	"infâme"	"1"	"-spelling"	2
"254_1"	254	21	"right"	"Ilse"	"15:54:17"	"female"	9	1	5	5	1	0	2541	"fourmi"	"1"	"-spelling"	2
"254_1"	254	21	"right"	"Ilse"	"15:54:17"	"female"	10	1	5	5	5	1	1920	"cadenas"	"1"	"-spelling"	2
"254_1"	254	21	"right"	"Ilse"	"15:54:17"	"female"	11	1	5	5	5	1	829	"racaille"	"1"	"-spelling"	2
"254_1"	254	21	"right"	"Ilse"	"15:54:17"	"female"	12	5	1	1	5	0	1134	"pourcine"	"1"	"-spelling"	2
"254_1"	254	21	"right"	"Ilse"	"15:54:17"	"female"	13	1	5	5	1	0	1522	"œillet"	"1"	"-spelling"	2
"254_1"	254	21	"right"	"Ilse"	"15:54:17"	"female"	14	5	1	1	1	1	1442	"raplaner"	"1"	"-spelling"	2
"254_1"	254	21	"right"	"Ilse"	"15:54:17"	"female"	15	5	1	1	1	1	1093	"plaiser"	"1"	"-spelling"	2
"254_1"	254	21	"right"	"Ilse"	"15:54:17"	"female"	16	5	1	1	1	1	1266	"cerveler"	"1"	"-spelling"	2
"254_1"	254	21	"right"	"Ilse"	"15:54:17"	"female"	17	5	1	1	5	0	1795	"endifier"	"1"	"-spelling"	2
"254_1"	254	21	"right"	"Ilse"	"15:54:17"	"female"	18	5	1	1	5	0	956	"jamain"	"1"	"-spelling"	2
"254_1"	254	21	"right"	"Ilse"	"15:54:17"	"female"	19	1	5	5	5	1	1400	"ennemi"	"1"	"-spelling"	2
"254_1"	254	21	"right"	"Ilse"	"15:54:17"	"female"	58	1	5	5	5	1	1563	"capeline"	"1"	"-spelling"	2
"254_1"	254	21	"right"	"Ilse"	"15:54:17"	"female"	59	1	5	5	5	1	3773	"lanière"	"1"	"-spelling"	2
"254_1"	254	21	"right"	"Ilse"	"15:54:17"	"female"	60	5	1	1	5	0	1757	"honteur"	"1"	"-spelling"	2
"254_1"	254	21	"right"	"Ilse"	"15:54:17"	"female"	61	1	5	5	1	0	1251	"abêtir"	"1"	"-spelling"	2
"254_1"	254	21	"right"	"Ilse"	"15:54:17"	"female"	62	1	5	5	5	1	921	"fenêtre"	"1"	"-spelling"	2
