"session"	"list"	"group"	"subject"	"age"	"sex"	"hand"	"assist"	"trial"	"file"	"stimulus"	"is_target"	"is_word"	"targettype"	"red"	"is_schwa"	"duration"	"rt"	"rt_end"	"response"	"correctness"	"oexperiment"	"spelling"	"subject_oexp"
1	"A1"	1	9	20	"female"	"left"	"Ilse"	1	"f66_2_p2_1_mono.wav"	"le d'main"	"no"	"yes"	"filler"	"r"	"yes"	671	1577	906	5	"no"	"1"	"-spelling"	"9_1"
1	"A1"	1	9	20	"female"	"left"	"Ilse"	2	"n75_0_p2_1_mono.wav"	"le fège"	"no"	"no"	"filler"	NA	"no"	882	1778	896	5	"yes"	"1"	"-spelling"	"9_1"
1	"A1"	1	9	20	"female"	"left"	"Ilse"	3	"f34_0_p1_1_mono.wav"	"le silence"	"no"	"yes"	"filler"	NA	"no"	931	1630	699	1	"yes"	"1"	"-spelling"	"9_1"
1	"A1"	1	9	20	"female"	"left"	"Ilse"	4	"f72_1_p1_1_mono.wav"	"la revanche"	"no"	"yes"	"filler"	"u"	"yes"	900	1428	528	1	"yes"	"1"	"-spelling"	"9_1"
1	"A1"	1	9	20	"female"	"left"	"Ilse"	5	"n29_0_p2_1_mono.wav"	"le choint"	"no"	"no"	"filler"	NA	"no"	721	1272	551	5	"yes"	"1"	"-spelling"	"9_1"
1	"A1"	1	9	20	"female"	"left"	"Ilse"	6	"f67_1_p3_1_mono.wav"	"le refuge"	"no"	"yes"	"filler"	"u"	"yes"	888	2573	1685	5	"no"	"1"	"-spelling"	"9_1"
1	"A1"	1	9	20	"female"	"left"	"Ilse"	7	"f32_0_p4_1_mono.wav"	"le moment"	"no"	"yes"	"filler"	NA	"no"	534	1279	745	1	"yes"	"1"	"-spelling"	"9_1"
1	"A1"	1	9	20	"female"	"left"	"Ilse"	8	"n73_0_p1_1_mono.wav"	"le buveau"	"no"	"no"	"filler"	NA	"no"	615	1164	549	5	"yes"	"1"	"-spelling"	"9_1"
1	"A1"	1	9	20	"female"	"left"	"Ilse"	9	"n03_1_p1_1_mono.wav"	"la mequisse"	"no"	"no"	"filler"	"u"	"yes"	908	1388	480	5	"yes"	"1"	"-spelling"	"9_1"
1	"A1"	1	9	20	"female"	"left"	"Ilse"	10	"f50_0_p2_1_mono.wav"	"le café"	"no"	"yes"	"filler"	NA	"no"	827	1617	790	1	"yes"	"1"	"-spelling"	"9_1"
1	"A1"	1	9	20	"female"	"left"	"Ilse"	11	"f30_0_p4_1_mono.wav"	"le garçon"	"no"	"yes"	"filler"	NA	"no"	615	1171	556	1	"yes"	"1"	"-spelling"	"9_1"
1	"A1"	1	9	20	"female"	"left"	"Ilse"	12	"n58_0_p1_1_mono.wav"	"la siture"	"no"	"no"	"filler"	NA	"no"	885	1980	1095	5	"yes"	"1"	"-spelling"	"9_1"
1	"A1"	1	9	20	"female"	"left"	"Ilse"	13	"n22_2_p3_1_mono.wav"	"le r'logue"	"no"	"no"	"filler"	"r"	"yes"	818	1587	769	1	"no"	"1"	"-spelling"	"9_1"
1	"A1"	1	9	20	"female"	"left"	"Ilse"	14	"n74_0_p1_1_mono.wav"	"le camont"	"no"	"no"	"filler"	NA	"no"	665	1225	560	5	"yes"	"1"	"-spelling"	"9_1"
1	"A1"	1	9	20	"female"	"left"	"Ilse"	15	"f61_1_p3_1_mono.wav"	"le semi"	"no"	"yes"	"filler"	"u"	"yes"	716	1299	583	5	"no"	"1"	"-spelling"	"9_1"
1	"A1"	1	9	20	"female"	"left"	"Ilse"	16	"n31_0_p1_1_mono.wav"	"l'annue"	"no"	"no"	"filler"	NA	"no"	692	1237	545	5	"yes"	"1"	"-spelling"	"9_1"
1	"A1"	1	9	20	"female"	"left"	"Ilse"	17	"n01_2_p1_1_mono.wav"	"la b'rasse"	"no"	"no"	"filler"	"r"	"yes"	889	1781	892	5	"yes"	"1"	"-spelling"	"9_1"
1	"A1"	1	9	20	"female"	"left"	"Ilse"	18	"f62_1_p1_1_mono.wav"	"le ressort"	"no"	"yes"	"filler"	"u"	"yes"	881	1430	549	5	"no"	"1"	"-spelling"	"9_1"
1	"A1"	1	9	20	"female"	"left"	"Ilse"	19	"n96_1_p2_1_mono.wav"	"la refare"	"no"	"no"	"filler"	"u"	"yes"	986	1794	808	5	"yes"	"1"	"-spelling"	"9_1"
1	"A1"	1	9	20	"female"	"left"	"Ilse"	20	"n70_0_p1_1_mono.wav"	"la nale"	"no"	"no"	"filler"	NA	"no"	727	1456	729	5	"yes"	"1"	"-spelling"	"9_1"
1	"A1"	1	9	20	"female"	"left"	"Ilse"	21	"f04_0_p2_1_mono.wav"	"la soeur"	"no"	"yes"	"filler"	NA	"no"	790	1661	871	5	"no"	"1"	"-spelling"	"9_1"
1	"A1"	1	9	20	"female"	"left"	"Ilse"	22	"n89_1_p3_1_mono.wav"	"le rebil"	"no"	"no"	"filler"	"u"	"yes"	912	1234	322	5	"yes"	"1"	"-spelling"	"9_1"
1	"A1"	1	9	20	"female"	"left"	"Ilse"	23	"n60_0_p1_1_mono.wav"	"le tinge"	"no"	"no"	"filler"	NA	"no"	954	1856	902	5	"yes"	"1"	"-spelling"	"9_1"
1	"A1"	1	9	20	"female"	"left"	"Ilse"	24	"t22_1_p4_2_mono.wav"	"le renard"	"yes"	"yes"	"match"	"u"	"yes"	935	1326	391	1	"yes"	"1"	"-spelling"	"9_1"
1	"A1"	1	9	20	"female"	"left"	"Ilse"	25	"n91_2_p3_1_mono.wav"	"le r'lide"	"no"	"no"	"filler"	"r"	"yes"	861	1859	998	5	"yes"	"1"	"-spelling"	"9_1"
1	"A1"	1	9	20	"female"	"left"	"Ilse"	26	"f71_2_p1_1_mono.wav"	"le r'cord"	"no"	"yes"	"filler"	"r"	"yes"	866	1878	1012	5	"no"	"1"	"-spelling"	"9_1"
1	"A1"	1	9	20	"female"	"left"	"Ilse"	27	"f03_0_p4_1_mono.wav"	"la nuit"	"no"	"yes"	"filler"	NA	"no"	735	1711	976	5	"no"	"1"	"-spelling"	"9_1"
1	"A1"	1	9	20	"female"	"left"	"Ilse"	28	"n05_1_p4_1_mono.wav"	"le gegnoble"	"no"	"no"	"filler"	"u"	"yes"	987	1766	779	5	"yes"	"1"	"-spelling"	"9_1"
1	"A1"	1	9	20	"female"	"left"	"Ilse"	29	"n49_0_p2_1_mono.wav"	"la questier"	"no"	"no"	"filler"	NA	"no"	963	1708	745	5	"yes"	"1"	"-spelling"	"9_1"
1	"A1"	1	9	20	"female"	"left"	"Ilse"	30	"n27_0_p2_1_mono.wav"	"la tuit"	"no"	"no"	"filler"	NA	"no"	916	1464	548	5	"yes"	"1"	"-spelling"	"9_1"
1	"A1"	1	9	20	"female"	"left"	"Ilse"	31	"n39_0_p2_1_mono.wav"	"le grat"	"no"	"no"	"filler"	NA	"no"	621	1391	770	5	"yes"	"1"	"-spelling"	"9_1"
1	"A1"	1	9	20	"female"	"left"	"Ilse"	32	"f19_0_p2_1_mono.wav"	"l'idée"	"no"	"yes"	"filler"	NA	"no"	796	1549	753	5	"no"	"1"	"-spelling"	"9_1"
1	"A1"	1	9	20	"female"	"left"	"Ilse"	33	"n02_2_p2_1_mono.wav"	"la l'druche"	"no"	"no"	"filler"	"r"	"yes"	869	1512	643	5	"yes"	"1"	"-spelling"	"9_1"
1	"A1"	1	9	20	"female"	"left"	"Ilse"	34	"f41_0_p4_1_mono.wav"	"la carte"	"no"	"yes"	"filler"	NA	"no"	836	1228	392	1	"yes"	"1"	"-spelling"	"9_1"
1	"A1"	1	9	20	"female"	"left"	"Ilse"	35	"f47_0_p2_1_mono.wav"	"la route"	"no"	"yes"	"filler"	NA	"no"	797	988	191	1	"yes"	"1"	"-spelling"	"9_1"
1	"A1"	1	9	20	"female"	"left"	"Ilse"	36	"n09_2_p1_1_mono.wav"	"le f'mmeil"	"no"	"no"	"filler"	"r"	"yes"	927	1551	624	5	"yes"	"1"	"-spelling"	"9_1"
1	"A1"	1	9	20	"female"	"left"	"Ilse"	37	"t11_2_p3_2_mono.wav"	"le r'mous"	"yes"	"yes"	"mismatch"	"r"	"yes"	562	1176	614	1	"yes"	"1"	"-spelling"	"9_1"
1	"A1"	1	9	20	"female"	"left"	"Ilse"	38	"n90_2_p2_1_mono.wav"	"le d'sseau"	"no"	"no"	"filler"	"r"	"yes"	683	1851	1168	5	"yes"	"1"	"-spelling"	"9_1"
1	"A1"	1	9	20	"female"	"left"	"Ilse"	39	"f01_0_p4_1_mono.wav"	"l'oncle"	"no"	"yes"	"filler"	NA	"no"	764	1386	622	5	"no"	"1"	"-spelling"	"9_1"
1	"A1"	1	9	20	"female"	"left"	"Ilse"	40	"f44_0_p1_1_mono.wav"	"la lettre"	"no"	"yes"	"filler"	NA	"no"	839	1438	599	1	"yes"	"1"	"-spelling"	"9_1"
1	"A1"	1	9	20	"female"	"left"	"Ilse"	41	"n33_0_p2_1_mono.wav"	"la juisse"	"no"	"no"	"filler"	NA	"no"	912	1742	830	5	"yes"	"1"	"-spelling"	"9_1"
1	"A1"	1	9	20	"female"	"left"	"Ilse"	42	"n44_0_p1_1_mono.wav"	"la fanouille"	"no"	"no"	"filler"	NA	"no"	852	1252	400	5	"yes"	"1"	"-spelling"	"9_1"
1	"A1"	1	9	20	"female"	"left"	"Ilse"	43	"n65_0_p4_1_mono.wav"	"la murte"	"no"	"no"	"filler"	NA	"no"	894	1148	254	5	"yes"	"1"	"-spelling"	"9_1"
1	"A1"	1	9	20	"female"	"left"	"Ilse"	44	"n62_0_p4_1_mono.wav"	"l'hosor"	"no"	"no"	"filler"	NA	"no"	774	1055	281	5	"yes"	"1"	"-spelling"	"9_1"
1	"A1"	1	9	20	"female"	"left"	"Ilse"	45	"f70_1_p1_1_mono.wav"	"le semestre"	"no"	"yes"	"filler"	"u"	"yes"	947	1324	377	1	"yes"	"1"	"-spelling"	"9_1"
1	"A1"	1	9	20	"female"	"left"	"Ilse"	46	"t21_2_p3_2_mono.wav"	"le r'cul"	"yes"	"yes"	"mismatch"	"r"	"yes"	840	1451	611	5	"no"	"1"	"-spelling"	"9_1"
1	"A1"	1	9	20	"female"	"left"	"Ilse"	47	"n69_0_p1_1_mono.wav"	"la madaine"	"no"	"no"	"filler"	NA	"no"	885	1210	325	5	"yes"	"1"	"-spelling"	"9_1"
1	"A1"	1	9	20	"female"	"left"	"Ilse"	48	"f55_0_p4_1_mono.wav"	"le livre"	"no"	"yes"	"filler"	NA	"no"	872	1173	301	1	"yes"	"1"	"-spelling"	"9_1"
1	"A1"	1	9	20	"female"	"left"	"Ilse"	49	"f27_0_p1_1_mono.wav"	"le cadeau"	"no"	"yes"	"filler"	NA	"no"	604	1066	462	1	"yes"	"1"	"-spelling"	"9_1"
1	"A1"	1	9	20	"female"	"left"	"Ilse"	50	"n50_0_p2_1_mono.wav"	"la rille"	"no"	"no"	"filler"	NA	"no"	802	1242	440	5	"yes"	"1"	"-spelling"	"9_1"
1	"A1"	1	9	20	"female"	"left"	"Ilse"	51	"f45_0_p2_1_mono.wav"	"la madame"	"no"	"yes"	"filler"	NA	"no"	767	1512	745	1	"yes"	"1"	"-spelling"	"9_1"
1	"A1"	1	9	20	"female"	"left"	"Ilse"	52	"n20_1_p1_1_mono.wav"	"le mejet"	"no"	"no"	"filler"	"u"	"yes"	793	1521	728	1	"no"	"1"	"-spelling"	"9_1"
1	"A1"	1	9	20	"female"	"left"	"Ilse"	53	"n35_0_p3_1_mono.wav"	"le missien"	"no"	"no"	"filler"	NA	"no"	721	1199	478	5	"yes"	"1"	"-spelling"	"9_1"
1	"A1"	1	9	20	"female"	"left"	"Ilse"	54	"n19_1_p3_1_mono.wav"	"le chedel"	"no"	"no"	"filler"	"u"	"yes"	870	1139	269	5	"yes"	"1"	"-spelling"	"9_1"
1	"A1"	1	9	20	"female"	"left"	"Ilse"	55	"n63_0_p1_1_mono.wav"	"la histienne"	"no"	"no"	"filler"	NA	"no"	786	1640	854	5	"yes"	"1"	"-spelling"	"9_1"
1	"A1"	1	9	20	"female"	"left"	"Ilse"	56	"f18_0_p3_1_mono.wav"	"l'enfant"	"no"	"yes"	"filler"	NA	"no"	513	1018	505	1	"yes"	"1"	"-spelling"	"9_1"
1	"A1"	1	9	20	"female"	"left"	"Ilse"	57	"n64_0_p3_1_mono.wav"	"l'oune"	"no"	"no"	"filler"	NA	"no"	601	1289	688	5	"yes"	"1"	"-spelling"	"9_1"
1	"A1"	1	9	20	"female"	"left"	"Ilse"	58	"n52_0_p2_1_mono.wav"	"le drère"	"no"	"no"	"filler"	NA	"no"	819	1149	330	5	"yes"	"1"	"-spelling"	"9_1"
1	"A1"	1	9	20	"female"	"left"	"Ilse"	59	"n11_1_p4_1_mono.wav"	"le refant"	"no"	"no"	"filler"	"u"	"yes"	700	1385	685	5	"yes"	"1"	"-spelling"	"9_1"
1	"A1"	1	9	20	"female"	"left"	"Ilse"	60	"n61_0_p3_1_mono.wav"	"l'apure"	"no"	"no"	"filler"	NA	"no"	885	2062	1177	5	"yes"	"1"	"-spelling"	"9_1"
1	"A1"	1	9	20	"female"	"left"	"Ilse"	61	"t24_1_p2_2_mono.wav"	"le faisan"	"yes"	"yes"	"match"	"u"	"yes"	686	1267	581	1	"yes"	"1"	"-spelling"	"9_1"
1	"A1"	1	9	20	"female"	"left"	"Ilse"	62	"f57_0_p2_1_mono.wav"	"le prix"	"no"	"yes"	"filler"	NA	"no"	792	1978	1186	1	"yes"	"1"	"-spelling"	"9_1"
1	"A1"	1	9	20	"female"	"left"	"Ilse"	63	"f53_0_p2_1_mono.wav"	"le groupe"	"no"	"yes"	"filler"	NA	"no"	744	1226	482	5	"no"	"1"	"-spelling"	"9_1"
1	"A1"	1	9	20	"female"	"left"	"Ilse"	64	"n86_1_p3_1_mono.wav"	"le repire"	"no"	"no"	"filler"	"u"	"yes"	965	1038	73	5	"yes"	"1"	"-spelling"	"9_1"
1	"A1"	1	9	20	"female"	"left"	"Ilse"	65	"n76_0_p4_1_mono.wav"	"le tenre"	"no"	"no"	"filler"	NA	"no"	832	1064	232	5	"yes"	"1"	"-spelling"	"9_1"
1	"A1"	1	9	20	"female"	"left"	"Ilse"	66	"t15_2_p2_2_mono.wav"	"la p'louse"	"yes"	"yes"	"mismatch"	"r"	"yes"	889	1336	447	5	"no"	"1"	"-spelling"	"9_1"
1	"A1"	1	9	20	"female"	"left"	"Ilse"	67	"n17_2_p4_1_mono.wav"	"la s'gence"	"no"	"no"	"filler"	"r"	"yes"	1084	1224	140	5	"yes"	"1"	"-spelling"	"9_1"
1	"A1"	1	9	20	"female"	"left"	"Ilse"	68	"t10_1_p1_2_mono.wav"	"le rebond"	"yes"	"yes"	"match"	"u"	"yes"	640	1193	553	5	"no"	"1"	"-spelling"	"9_1"
1	"A1"	1	9	20	"female"	"left"	"Ilse"	69	"n34_0_p3_1_mono.wav"	"le teau"	"no"	"no"	"filler"	NA	"no"	473	1371	898	5	"yes"	"1"	"-spelling"	"9_1"
1	"A1"	1	9	20	"female"	"left"	"Ilse"	70	"f40_0_p1_1_mono.wav"	"l'homme"	"no"	"yes"	"filler"	NA	"no"	638	1143	505	1	"yes"	"1"	"-spelling"	"9_1"
1	"A1"	1	9	20	"female"	"left"	"Ilse"	71	"f58_0_p1_1_mono.wav"	"le service"	"no"	"yes"	"filler"	NA	"no"	935	1824	889	5	"no"	"1"	"-spelling"	"9_1"
1	"A1"	1	9	20	"female"	"left"	"Ilse"	72	"n13_1_p2_1_mono.wav"	"le seblème"	"no"	"no"	"filler"	"u"	"yes"	846	1532	686	5	"yes"	"1"	"-spelling"	"9_1"
1	"A1"	1	9	20	"female"	"left"	"Ilse"	73	"n94_1_p2_1_mono.wav"	"le sequestre"	"no"	"no"	"filler"	"u"	"yes"	1007	1211	204	5	"yes"	"1"	"-spelling"	"9_1"
1	"A1"	1	9	20	"female"	"left"	"Ilse"	74	"n57_0_p1_1_mono.wav"	"le ratime"	"no"	"no"	"filler"	NA	"no"	859	1236	377	5	"yes"	"1"	"-spelling"	"9_1"
1	"A1"	1	9	20	"female"	"left"	"Ilse"	75	"n77_0_p4_1_mono.wav"	"le bruc"	"no"	"no"	"filler"	NA	"no"	880	1221	341	5	"yes"	"1"	"-spelling"	"9_1"
1	"A1"	1	9	20	"female"	"left"	"Ilse"	76	"f24_0_p2_1_mono.wav"	"la maison"	"no"	"yes"	"filler"	NA	"no"	625	1101	476	1	"yes"	"1"	"-spelling"	"9_1"
1	"A1"	1	9	20	"female"	"left"	"Ilse"	77	"n45_0_p3_1_mono.wav"	"la horgune"	"no"	"no"	"filler"	NA	"no"	731	994	263	5	"yes"	"1"	"-spelling"	"9_1"
1	"A1"	1	9	20	"female"	"left"	"Ilse"	78	"t04_1_p1_2_mono.wav"	"la reliure"	"yes"	"yes"	"match"	"u"	"yes"	1026	1421	395	5	"no"	"1"	"-spelling"	"9_1"
1	"A1"	1	9	20	"female"	"left"	"Ilse"	79	"f31_0_p3_1_mono.wav"	"le jour"	"no"	"yes"	"filler"	NA	"no"	878	1183	305	1	"yes"	"1"	"-spelling"	"9_1"
1	"A1"	1	9	20	"female"	"left"	"Ilse"	80	"n24_2_p4_1_mono.wav"	"le f'quon"	"no"	"no"	"filler"	"r"	"yes"	660	1248	588	5	"yes"	"1"	"-spelling"	"9_1"
1	"A1"	1	9	20	"female"	"left"	"Ilse"	81	"n40_0_p3_1_mono.wav"	"l'équise"	"no"	"no"	"filler"	NA	"no"	872	1510	638	5	"yes"	"1"	"-spelling"	"9_1"
1	"A1"	1	9	20	"female"	"left"	"Ilse"	82	"n59_0_p4_1_mono.wav"	"le solti"	"no"	"no"	"filler"	NA	"no"	856	1573	717	5	"yes"	"1"	"-spelling"	"9_1"
1	"A1"	1	9	20	"female"	"left"	"Ilse"	83	"t16_1_p1_2_mono.wav"	"la peluche"	"yes"	"yes"	"match"	"u"	"yes"	846	1544	698	1	"yes"	"1"	"-spelling"	"9_1"
1	"A1"	1	9	20	"female"	"left"	"Ilse"	84	"f13_0_p4_1_mono.wav"	"le papier"	"no"	"yes"	"filler"	NA	"no"	977	1285	308	5	"no"	"1"	"-spelling"	"9_1"
1	"A1"	1	9	20	"female"	"left"	"Ilse"	85	"f22_0_p3_1_mono.wav"	"la journée"	"no"	"yes"	"filler"	NA	"no"	793	1038	245	1	"yes"	"1"	"-spelling"	"9_1"
1	"A1"	1	9	20	"female"	"left"	"Ilse"	86	"f59_0_p2_1_mono.wav"	"le soleil"	"no"	"yes"	"filler"	NA	"no"	871	991	120	1	"yes"	"1"	"-spelling"	"9_1"
1	"A1"	1	9	20	"female"	"left"	"Ilse"	87	"f42_0_p1_1_mono.wav"	"la chance"	"no"	"yes"	"filler"	NA	"no"	807	2324	1517	1	"yes"	"1"	"-spelling"	"9_1"
1	"A1"	1	9	20	"female"	"left"	"Ilse"	88	"n80_0_p2_1_mono.wav"	"le péhut"	"no"	"no"	"filler"	NA	"no"	988	1224	236	5	"yes"	"1"	"-spelling"	"9_1"
1	"A1"	1	9	20	"female"	"left"	"Ilse"	89	"n67_0_p2_1_mono.wav"	"la janne"	"no"	"no"	"filler"	NA	"no"	765	1428	663	5	"yes"	"1"	"-spelling"	"9_1"
1	"A1"	1	9	20	"female"	"left"	"Ilse"	90	"f54_0_p1_1_mono.wav"	"le journal"	"no"	"yes"	"filler"	NA	"no"	910	1217	307	1	"yes"	"1"	"-spelling"	"9_1"
1	"A1"	1	9	20	"female"	"left"	"Ilse"	91	"f02_0_p2_1_mono.wav"	"la main"	"no"	"yes"	"filler"	NA	"no"	540	1044	504	5	"no"	"1"	"-spelling"	"9_1"
1	"A1"	1	9	20	"female"	"left"	"Ilse"	92	"t14_1_p2_2_mono.wav"	"la chenille"	"yes"	"yes"	"match"	"u"	"yes"	938	1995	1057	1	"yes"	"1"	"-spelling"	"9_1"
1	"A1"	1	9	20	"female"	"left"	"Ilse"	93	"n42_0_p1_1_mono.wav"	"l'endos"	"no"	"no"	"filler"	NA	"no"	588	1065	477	5	"yes"	"1"	"-spelling"	"9_1"
1	"A1"	1	9	20	"female"	"left"	"Ilse"	94	"f29_0_p3_1_mono.wav"	"le fromage"	"no"	"yes"	"filler"	NA	"no"	818	1040	222	1	"yes"	"1"	"-spelling"	"9_1"
1	"A1"	1	9	20	"female"	"left"	"Ilse"	95	"n38_0_p2_1_mono.wav"	"le suir"	"no"	"no"	"filler"	NA	"no"	855	1270	415	5	"yes"	"1"	"-spelling"	"9_1"
1	"A1"	1	9	20	"female"	"left"	"Ilse"	96	"f65_2_p1_1_mono.wav"	"le r'paire"	"no"	"yes"	"filler"	"r"	"yes"	914	1579	665	5	"no"	"1"	"-spelling"	"9_1"
1	"A1"	1	9	20	"female"	"left"	"Ilse"	97	"f56_0_p3_1_mono.wav"	"le pays"	"no"	"yes"	"filler"	NA	"no"	738	1236	498	5	"no"	"1"	"-spelling"	"9_1"
1	"A1"	1	9	20	"female"	"left"	"Ilse"	98	"n06_1_p2_1_mono.wav"	"le retal"	"no"	"no"	"filler"	"u"	"yes"	907	1475	568	5	"yes"	"1"	"-spelling"	"9_1"
1	"A1"	1	9	20	"female"	"left"	"Ilse"	99	"f21_0_p1_1_mono.wav"	"la horloge"	"no"	"yes"	"filler"	NA	"no"	691	1120	429	1	"yes"	"1"	"-spelling"	"9_1"
1	"A1"	1	9	20	"female"	"left"	"Ilse"	100	"t23_2_p2_2_mono.wav"	"la s'cousse"	"yes"	"yes"	"mismatch"	"r"	"yes"	865	1411	546	5	"no"	"1"	"-spelling"	"9_1"
1	"A1"	1	9	20	"female"	"left"	"Ilse"	101	"f46_0_p1_1_mono.wav"	"la part"	"no"	"yes"	"filler"	NA	"no"	851	1343	492	5	"no"	"1"	"-spelling"	"9_1"
1	"A1"	1	9	20	"female"	"left"	"Ilse"	102	"n87_1_p3_1_mono.wav"	"le chenache"	"no"	"no"	"filler"	"u"	"yes"	881	1157	276	5	"yes"	"1"	"-spelling"	"9_1"
1	"A1"	1	9	20	"female"	"left"	"Ilse"	103	"n43_0_p2_1_mono.wav"	"l'ivée"	"no"	"no"	"filler"	NA	"no"	804	1265	461	5	"yes"	"1"	"-spelling"	"9_1"
1	"A1"	1	9	20	"female"	"left"	"Ilse"	104	"n71_0_p3_1_mono.wav"	"la foite"	"no"	"no"	"filler"	NA	"no"	994	1389	395	1	"no"	"1"	"-spelling"	"9_1"
1	"A1"	1	9	20	"female"	"left"	"Ilse"	105	"n36_0_p1_1_mono.wav"	"le linde"	"no"	"no"	"filler"	NA	"no"	848	1766	918	5	"yes"	"1"	"-spelling"	"9_1"
1	"A1"	1	9	20	"female"	"left"	"Ilse"	106	"n78_0_p1_1_mono.wav"	"le jourlingue"	"no"	"no"	"filler"	NA	"no"	993	1250	257	5	"yes"	"1"	"-spelling"	"9_1"
1	"A1"	1	9	20	"female"	"left"	"Ilse"	107	"f23_0_p1_1_mono.wav"	"la mère"	"no"	"yes"	"filler"	NA	"no"	902	1788	886	1	"yes"	"1"	"-spelling"	"9_1"
1	"A1"	1	9	20	"female"	"left"	"Ilse"	108	"f09_0_p2_1_mono.wav"	"la pièce"	"no"	"yes"	"filler"	NA	"no"	830	1330	500	5	"no"	"1"	"-spelling"	"9_1"
1	"A1"	1	9	20	"female"	"left"	"Ilse"	109	"f36_0_p1_1_mono.wav"	"le type"	"no"	"yes"	"filler"	NA	"no"	965	1361	396	5	"no"	"1"	"-spelling"	"9_1"
1	"A1"	1	9	20	"female"	"left"	"Ilse"	110	"f38_0_p3_1_mono.wav"	"l'hôtel"	"no"	"yes"	"filler"	NA	"no"	721	937	216	1	"yes"	"1"	"-spelling"	"9_1"
1	"A1"	1	9	20	"female"	"left"	"Ilse"	111	"f20_0_p3_1_mono.wav"	"la famille"	"no"	"yes"	"filler"	NA	"no"	856	1254	398	1	"yes"	"1"	"-spelling"	"9_1"
1	"A1"	1	9	20	"female"	"left"	"Ilse"	112	"n93_2_p3_1_mono.wav"	"le r'vercle"	"no"	"no"	"filler"	"r"	"yes"	806	1608	802	5	"yes"	"1"	"-spelling"	"9_1"
1	"A1"	1	9	20	"female"	"left"	"Ilse"	113	"f26_0_p1_1_mono.wav"	"la ville"	"no"	"yes"	"filler"	NA	"no"	741	994	253	1	"yes"	"1"	"-spelling"	"9_1"
1	"A1"	1	9	20	"female"	"left"	"Ilse"	114	"n18_1_p3_1_mono.wav"	"le reclin"	"no"	"no"	"filler"	"u"	"yes"	888	2026	1138	5	"yes"	"1"	"-spelling"	"9_1"
1	"A1"	1	9	20	"female"	"left"	"Ilse"	115	"n32_0_p1_1_mono.wav"	"l'heule"	"no"	"no"	"filler"	NA	"no"	678	1084	406	5	"yes"	"1"	"-spelling"	"9_1"
1	"A1"	1	9	20	"female"	"left"	"Ilse"	116	"t01_2_p4_2_mono.wav"	"la b'lette"	"yes"	"yes"	"mismatch"	"r"	"yes"	879	1232	353	5	"no"	"1"	"-spelling"	"9_1"
1	"A1"	1	9	20	"female"	"left"	"Ilse"	117	"n23_2_p1_1_mono.wav"	"la s'pave"	"no"	"no"	"filler"	"r"	"yes"	945	2682	1737	5	"yes"	"1"	"-spelling"	"9_1"
1	"A1"	1	9	20	"female"	"left"	"Ilse"	118	"t02_1_p1_2_mono.wav"	"la levrette"	"yes"	"yes"	"match"	"u"	"yes"	856	1092	236	1	"yes"	"1"	"-spelling"	"9_1"
1	"A1"	1	9	20	"female"	"left"	"Ilse"	119	"n30_0_p2_1_mono.wav"	"le pien"	"no"	"no"	"filler"	NA	"no"	691	1263	572	5	"yes"	"1"	"-spelling"	"9_1"
1	"A1"	1	9	20	"female"	"left"	"Ilse"	120	"f39_0_p1_1_mono.wav"	"l'histoire"	"no"	"yes"	"filler"	NA	"no"	949	1584	635	1	"yes"	"1"	"-spelling"	"9_1"
1	"A1"	1	9	20	"female"	"left"	"Ilse"	121	"t08_1_p3_2_mono.wav"	"la semelle"	"yes"	"yes"	"match"	"u"	"yes"	916	2666	1750	5	"no"	"1"	"-spelling"	"9_1"
1	"A1"	1	9	20	"female"	"left"	"Ilse"	122	"f63_2_p4_1_mono.wav"	"le ch'val"	"no"	"yes"	"filler"	"r"	"yes"	779	1756	977	1	"yes"	"1"	"-spelling"	"9_1"
1	"A1"	1	9	20	"female"	"left"	"Ilse"	123	"n16_2_p4_1_mono.wav"	"la p'doche"	"no"	"no"	"filler"	"r"	"yes"	875	1327	452	5	"yes"	"1"	"-spelling"	"9_1"
1	"A1"	1	9	20	"female"	"left"	"Ilse"	124	"t07_2_p1_2_mono.wav"	"la b'daine"	"yes"	"yes"	"mismatch"	"r"	"yes"	756	1003	247	5	"no"	"1"	"-spelling"	"9_1"
1	"A1"	1	9	20	"female"	"left"	"Ilse"	125	"f17_0_p4_1_mono.wav"	"l'accord"	"no"	"yes"	"filler"	NA	"no"	866	2896	2030	1	"yes"	"1"	"-spelling"	"9_1"
1	"A1"	1	9	20	"female"	"left"	"Ilse"	126	"t13_2_p3_2_mono.wav"	"le s'vrage"	"yes"	"yes"	"mismatch"	"r"	"yes"	998	1648	650	5	"no"	"1"	"-spelling"	"9_1"
1	"A1"	1	9	20	"female"	"left"	"Ilse"	127	"f10_0_p2_1_mono.wav"	"le chat"	"no"	"yes"	"filler"	NA	"no"	582	1275	693	1	"yes"	"1"	"-spelling"	"9_1"
1	"A1"	1	9	20	"female"	"left"	"Ilse"	128	"n48_0_p2_1_mono.wav"	"la mainou"	"no"	"no"	"filler"	NA	"no"	740	1500	760	1	"no"	"1"	"-spelling"	"9_1"
1	"A1"	1	9	20	"female"	"left"	"Ilse"	129	"f11_0_p2_1_mono.wav"	"le milieu"	"no"	"yes"	"filler"	NA	"no"	753	1303	550	1	"yes"	"1"	"-spelling"	"9_1"
1	"A1"	1	9	20	"female"	"left"	"Ilse"	130	"n46_0_p1_1_mono.wav"	"la jourcie"	"no"	"no"	"filler"	NA	"no"	930	1173	243	5	"yes"	"1"	"-spelling"	"9_1"
1	"A1"	1	9	20	"female"	"left"	"Ilse"	131	"f37_0_p2_1_mono.wav"	"l'amour"	"no"	"yes"	"filler"	NA	"no"	839	1023	184	1	"yes"	"1"	"-spelling"	"9_1"
1	"A1"	1	9	20	"female"	"left"	"Ilse"	132	"n53_0_p1_1_mono.wav"	"le frolège"	"no"	"no"	"filler"	NA	"no"	855	1126	271	5	"yes"	"1"	"-spelling"	"9_1"
1	"A1"	1	9	20	"female"	"left"	"Ilse"	133	"n88_1_p2_1_mono.wav"	"le messin"	"no"	"no"	"filler"	"u"	"yes"	704	1450	746	5	"yes"	"1"	"-spelling"	"9_1"
1	"A1"	1	9	20	"female"	"left"	"Ilse"	134	"n47_0_p4_1_mono.wav"	"la nure"	"no"	"no"	"filler"	NA	"no"	829	1040	211	5	"yes"	"1"	"-spelling"	"9_1"
1	"A1"	1	9	20	"female"	"left"	"Ilse"	135	"n56_0_p3_1_mono.wav"	"le mossu"	"no"	"no"	"filler"	NA	"no"	820	1330	510	5	"yes"	"1"	"-spelling"	"9_1"
1	"A1"	1	9	20	"female"	"left"	"Ilse"	136	"t03_2_p2_2_mono.wav"	"la m'notte"	"yes"	"yes"	"mismatch"	"r"	"yes"	889	2239	1350	5	"no"	"1"	"-spelling"	"9_1"
1	"A1"	1	9	20	"female"	"left"	"Ilse"	137	"n72_0_p3_1_mono.wav"	"la teune"	"no"	"no"	"filler"	NA	"no"	893	1606	713	5	"yes"	"1"	"-spelling"	"9_1"
1	"A1"	1	9	20	"female"	"left"	"Ilse"	138	"f35_0_p4_1_mono.wav"	"le soldat"	"no"	"yes"	"filler"	NA	"no"	677	1356	679	1	"yes"	"1"	"-spelling"	"9_1"
1	"A1"	1	9	20	"female"	"left"	"Ilse"	139	"t06_1_p1_2_mono.wav"	"le recel"	"yes"	"yes"	"match"	"u"	"yes"	938	1182	244	5	"no"	"1"	"-spelling"	"9_1"
1	"A1"	1	9	20	"female"	"left"	"Ilse"	140	"f25_0_p3_1_mono.wav"	"la question"	"no"	"yes"	"filler"	NA	"no"	728	1293	565	1	"yes"	"1"	"-spelling"	"9_1"
1	"A1"	1	9	20	"female"	"left"	"Ilse"	141	"n14_1_p1_1_mono.wav"	"la chemaille"	"no"	"no"	"filler"	"u"	"yes"	797	1413	616	5	"yes"	"1"	"-spelling"	"9_1"
1	"A1"	1	9	20	"female"	"left"	"Ilse"	142	"n79_0_p4_1_mono.wav"	"le tavre"	"no"	"no"	"filler"	NA	"no"	855	1159	304	5	"yes"	"1"	"-spelling"	"9_1"
1	"A1"	1	9	20	"female"	"left"	"Ilse"	143	"f08_0_p4_1_mono.wav"	"l'heure"	"no"	"yes"	"filler"	NA	"no"	735	1583	848	1	"yes"	"1"	"-spelling"	"9_1"
1	"A1"	1	9	20	"female"	"left"	"Ilse"	144	"f33_0_p4_1_mono.wav"	"le rapport"	"no"	"yes"	"filler"	NA	"no"	872	1344	472	1	"yes"	"1"	"-spelling"	"9_1"
1	"A1"	1	9	20	"female"	"left"	"Ilse"	145	"n12_1_p1_1_mono.wav"	"le rechant"	"no"	"no"	"filler"	"u"	"yes"	686	2128	1442	5	"yes"	"1"	"-spelling"	"9_1"
1	"A1"	1	9	20	"female"	"left"	"Ilse"	146	"f05_0_p2_1_mono.wav"	"le chien"	"no"	"yes"	"filler"	NA	"no"	668	1800	1132	1	"yes"	"1"	"-spelling"	"9_1"
1	"A1"	1	9	20	"female"	"left"	"Ilse"	147	"f16_0_p4_1_mono.wav"	"l'école"	"no"	"yes"	"filler"	NA	"no"	771	1416	645	1	"yes"	"1"	"-spelling"	"9_1"
1	"A1"	1	9	20	"female"	"left"	"Ilse"	148	"t05_2_p3_2_mono.wav"	"le g'nièvre"	"yes"	"yes"	"mismatch"	"r"	"yes"	943	1532	589	1	"yes"	"1"	"-spelling"	"9_1"
1	"A1"	1	9	20	"female"	"left"	"Ilse"	149	"n25_0_p1_1_mono.wav"	"l'incre"	"no"	"no"	"filler"	NA	"no"	771	1306	535	5	"yes"	"1"	"-spelling"	"9_1"
1	"A1"	1	9	20	"female"	"left"	"Ilse"	150	"f49_0_p2_1_mono.wav"	"le bureau"	"no"	"yes"	"filler"	NA	"no"	857	1088	231	1	"yes"	"1"	"-spelling"	"9_1"
1	"A1"	1	9	20	"female"	"left"	"Ilse"	151	"n51_0_p4_1_mono.wav"	"le caffant"	"no"	"no"	"filler"	NA	"no"	644	1354	710	5	"yes"	"1"	"-spelling"	"9_1"
1	"A1"	1	9	20	"female"	"left"	"Ilse"	152	"n81_0_p1_1_mono.wav"	"le croux"	"no"	"no"	"filler"	NA	"no"	720	1179	459	5	"yes"	"1"	"-spelling"	"9_1"
1	"A1"	1	9	20	"female"	"left"	"Ilse"	153	"n66_0_p2_1_mono.wav"	"la cance"	"no"	"no"	"filler"	NA	"no"	861	991	130	5	"yes"	"1"	"-spelling"	"9_1"
1	"A1"	1	9	20	"female"	"left"	"Ilse"	154	"f60_0_p1_1_mono.wav"	"le tour"	"no"	"yes"	"filler"	NA	"no"	839	1304	465	1	"yes"	"1"	"-spelling"	"9_1"
1	"A1"	1	9	20	"female"	"left"	"Ilse"	155	"f12_0_p4_1_mono.wav"	"le monde"	"no"	"yes"	"filler"	NA	"no"	723	920	197	5	"no"	"1"	"-spelling"	"9_1"
1	"A1"	1	9	20	"female"	"left"	"Ilse"	156	"f52_0_p2_1_mono.wav"	"le genre"	"no"	"yes"	"filler"	NA	"no"	889	1391	502	5	"no"	"1"	"-spelling"	"9_1"
1	"A1"	1	9	20	"female"	"left"	"Ilse"	157	"t09_2_p2_2_mono.wav"	"le f'nouil"	"yes"	"yes"	"mismatch"	"r"	"yes"	820	935	115	5	"no"	"1"	"-spelling"	"9_1"
1	"A1"	1	9	20	"female"	"left"	"Ilse"	158	"n82_0_p2_1_mono.wav"	"le sermite"	"no"	"no"	"filler"	NA	"no"	876	1203	327	5	"yes"	"1"	"-spelling"	"9_1"
1	"A1"	1	9	20	"female"	"left"	"Ilse"	159	"n10_2_p3_1_mono.wav"	"le r'got"	"no"	"no"	"filler"	"r"	"yes"	787	1210	423	5	"yes"	"1"	"-spelling"	"9_1"
1	"A1"	1	9	20	"female"	"left"	"Ilse"	160	"n08_2_p2_1_mono.wav"	"la s'cotte"	"no"	"no"	"filler"	"r"	"yes"	817	1571	754	5	"yes"	"1"	"-spelling"	"9_1"
1	"A1"	1	9	20	"female"	"left"	"Ilse"	161	"n04_2_p4_1_mono.wav"	"la r'noise"	"no"	"no"	"filler"	"r"	"yes"	882	1245	363	5	"yes"	"1"	"-spelling"	"9_1"
1	"A1"	1	9	20	"female"	"left"	"Ilse"	162	"n85_2_p1_1_mono.wav"	"le s'funt"	"no"	"no"	"filler"	"r"	"yes"	778	1003	225	5	"yes"	"1"	"-spelling"	"9_1"
1	"A1"	1	9	20	"female"	"left"	"Ilse"	163	"n55_0_p3_1_mono.wav"	"le nourd"	"no"	"no"	"filler"	NA	"no"	876	1406	530	5	"yes"	"1"	"-spelling"	"9_1"
1	"A1"	1	9	20	"female"	"left"	"Ilse"	164	"t19_2_p2_2_mono.wav"	"le ch'nil"	"yes"	"yes"	"mismatch"	"r"	"yes"	928	1922	994	5	"no"	"1"	"-spelling"	"9_1"
1	"A1"	1	9	20	"female"	"left"	"Ilse"	165	"f15_0_p3_1_mono.wav"	"le train"	"no"	"yes"	"filler"	NA	"no"	648	1039	391	5	"no"	"1"	"-spelling"	"9_1"
1	"A1"	1	9	20	"female"	"left"	"Ilse"	166	"t20_1_p3_2_mono.wav"	"le meneau"	"yes"	"yes"	"match"	"u"	"yes"	629	2410	1781	1	"yes"	"1"	"-spelling"	"9_1"
1	"A1"	1	9	20	"female"	"left"	"Ilse"	167	"n07_1_p2_1_mono.wav"	"la bechesse"	"no"	"no"	"filler"	"u"	"yes"	898	1050	152	5	"yes"	"1"	"-spelling"	"9_1"
1	"A1"	1	9	20	"female"	"left"	"Ilse"	168	"f51_0_p3_1_mono.wav"	"le chef"	"no"	"yes"	"filler"	NA	"no"	767	1019	252	1	"yes"	"1"	"-spelling"	"9_1"
1	"A1"	1	9	20	"female"	"left"	"Ilse"	169	"f14_0_p2_1_mono.wav"	"le soir"	"no"	"yes"	"filler"	NA	"no"	891	1294	403	1	"yes"	"1"	"-spelling"	"9_1"
1	"A1"	1	9	20	"female"	"left"	"Ilse"	170	"n83_0_p4_1_mono.wav"	"le sogueil"	"no"	"no"	"filler"	NA	"no"	915	1412	497	5	"yes"	"1"	"-spelling"	"9_1"
1	"A1"	1	9	20	"female"	"left"	"Ilse"	171	"n28_0_p1_1_mono.wav"	"la veure"	"no"	"no"	"filler"	NA	"no"	834	1655	821	5	"yes"	"1"	"-spelling"	"9_1"
1	"A1"	1	9	20	"female"	"left"	"Ilse"	172	"f43_0_p4_1_mono.wav"	"la femme"	"no"	"yes"	"filler"	NA	"no"	863	1301	438	1	"yes"	"1"	"-spelling"	"9_1"
1	"A1"	1	9	20	"female"	"left"	"Ilse"	173	"n54_0_p1_1_mono.wav"	"le garfait"	"no"	"no"	"filler"	NA	"no"	936	1163	227	5	"yes"	"1"	"-spelling"	"9_1"
1	"A1"	1	9	20	"female"	"left"	"Ilse"	174	"n68_0_p3_1_mono.wav"	"la moucle"	"no"	"no"	"filler"	NA	"no"	808	1141	333	5	"yes"	"1"	"-spelling"	"9_1"
1	"A1"	1	9	20	"female"	"left"	"Ilse"	175	"f06_0_p2_1_mono.wav"	"le point"	"no"	"yes"	"filler"	NA	"no"	697	1137	440	5	"no"	"1"	"-spelling"	"9_1"
1	"A1"	1	9	20	"female"	"left"	"Ilse"	176	"f48_0_p3_1_mono.wav"	"la scène"	"no"	"yes"	"filler"	NA	"no"	862	1315	453	5	"no"	"1"	"-spelling"	"9_1"
1	"A1"	1	9	20	"female"	"left"	"Ilse"	177	"t12_1_p4_2_mono.wav"	"le requin"	"yes"	"yes"	"match"	"u"	"yes"	619	1620	1001	1	"yes"	"1"	"-spelling"	"9_1"
1	"A1"	1	9	20	"female"	"left"	"Ilse"	178	"n84_0_p4_1_mono.wav"	"le vort"	"no"	"no"	"filler"	NA	"no"	798	1009	211	5	"yes"	"1"	"-spelling"	"9_1"
1	"A1"	1	9	20	"female"	"left"	"Ilse"	179	"n37_0_p4_1_mono.wav"	"le padiot"	"no"	"no"	"filler"	NA	"no"	652	1113	461	5	"yes"	"1"	"-spelling"	"9_1"
1	"A1"	1	9	20	"female"	"left"	"Ilse"	180	"t17_2_p4_2_mono.wav"	"la s'moule"	"yes"	"yes"	"mismatch"	"r"	"yes"	894	1361	467	5	"no"	"1"	"-spelling"	"9_1"
1	"A1"	1	9	20	"female"	"left"	"Ilse"	181	"n95_2_p4_1_mono.wav"	"le r'pus"	"no"	"no"	"filler"	"r"	"yes"	927	1198	271	5	"yes"	"1"	"-spelling"	"9_1"
1	"A1"	1	9	20	"female"	"left"	"Ilse"	182	"n92_2_p4_1_mono.wav"	"le r'gure"	"no"	"no"	"filler"	"r"	"yes"	878	1093	215	5	"yes"	"1"	"-spelling"	"9_1"
1	"A1"	1	9	20	"female"	"left"	"Ilse"	183	"n41_0_p2_1_mono.wav"	"l'agime"	"no"	"no"	"filler"	NA	"no"	766	2404	1638	5	"yes"	"1"	"-spelling"	"9_1"
1	"A1"	1	9	20	"female"	"left"	"Ilse"	184	"f69_2_p2_1_mono.wav"	"le r'gistre"	"no"	"yes"	"filler"	"r"	"yes"	946	1156	210	5	"no"	"1"	"-spelling"	"9_1"
1	"A1"	1	9	20	"female"	"left"	"Ilse"	185	"f07_0_p4_1_mono.wav"	"l'année"	"no"	"yes"	"filler"	NA	"no"	683	1908	1225	5	"no"	"1"	"-spelling"	"9_1"
1	"A1"	1	9	20	"female"	"left"	"Ilse"	186	"n21_2_p1_1_mono.wav"	"le r'pèze"	"no"	"no"	"filler"	"r"	"yes"	831	1081	250	5	"yes"	"1"	"-spelling"	"9_1"
1	"A1"	1	9	20	"female"	"left"	"Ilse"	187	"f28_0_p4_1_mono.wav"	"le frère"	"no"	"yes"	"filler"	NA	"no"	938	1254	316	1	"yes"	"1"	"-spelling"	"9_1"
1	"A1"	1	9	20	"female"	"left"	"Ilse"	188	"f64_1_p3_1_mono.wav"	"le melon"	"no"	"yes"	"filler"	"u"	"yes"	682	1225	543	5	"no"	"1"	"-spelling"	"9_1"
1	"A1"	1	9	20	"female"	"left"	"Ilse"	189	"n26_0_p4_1_mono.wav"	"la jun"	"no"	"no"	"filler"	NA	"no"	568	1709	1141	5	"yes"	"1"	"-spelling"	"9_1"
1	"A1"	1	9	20	"female"	"left"	"Ilse"	190	"f68_2_p4_1_mono.wav"	"le r'tard"	"no"	"yes"	"filler"	"r"	"yes"	935	1624	689	5	"no"	"1"	"-spelling"	"9_1"
1	"A1"	1	9	20	"female"	"left"	"Ilse"	191	"n15_1_p1_1_mono.wav"	"la pessade"	"no"	"no"	"filler"	"u"	"yes"	854	1628	774	5	"yes"	"1"	"-spelling"	"9_1"
1	"A1"	1	9	20	"female"	"left"	"Ilse"	192	"t18_1_p2_2_mono.wav"	"le reflet"	"yes"	"yes"	"match"	"u"	"yes"	845	1380	535	1	"yes"	"1"	"-spelling"	"9_1"
1	"A1"	1	17	20	"female"	"right"	"Nadia"	1	"f66_2_p2_1_mono.wav"	"le d'main"	"no"	"yes"	"filler"	"r"	"yes"	671	3715	3044	1	"no"	"1"	"-spelling"	"17_1"
1	"A1"	1	17	20	"female"	"right"	"Nadia"	2	"n75_0_p2_1_mono.wav"	"le fège"	"no"	"no"	"filler"	NA	"no"	882	1716	834	5	"no"	"1"	"-spelling"	"17_1"
1	"A1"	1	17	20	"female"	"right"	"Nadia"	3	"f34_0_p1_1_mono.wav"	"le silence"	"no"	"yes"	"filler"	NA	"no"	931	1416	485	5	"yes"	"1"	"-spelling"	"17_1"
1	"A1"	1	17	20	"female"	"right"	"Nadia"	4	"f72_1_p1_1_mono.wav"	"la revanche"	"no"	"yes"	"filler"	"u"	"yes"	900	1299	399	5	"yes"	"1"	"-spelling"	"17_1"
1	"A1"	1	17	20	"female"	"right"	"Nadia"	5	"n29_0_p2_1_mono.wav"	"le choint"	"no"	"no"	"filler"	NA	"no"	721	1802	1081	5	"no"	"1"	"-spelling"	"17_1"
1	"A1"	1	17	20	"female"	"right"	"Nadia"	6	"f67_1_p3_1_mono.wav"	"le refuge"	"no"	"yes"	"filler"	"u"	"yes"	888	1103	215	5	"yes"	"1"	"-spelling"	"17_1"
1	"A1"	1	17	20	"female"	"right"	"Nadia"	7	"f32_0_p4_1_mono.wav"	"le moment"	"no"	"yes"	"filler"	NA	"no"	534	3966	3432	1	"no"	"1"	"-spelling"	"17_1"
1	"A1"	1	17	20	"female"	"right"	"Nadia"	8	"n73_0_p1_1_mono.wav"	"le buveau"	"no"	"no"	"filler"	NA	"no"	615	1401	786	5	"no"	"1"	"-spelling"	"17_1"
1	"A1"	1	17	20	"female"	"right"	"Nadia"	9	"n03_1_p1_1_mono.wav"	"la mequisse"	"no"	"no"	"filler"	"u"	"yes"	908	2415	1507	5	"no"	"1"	"-spelling"	"17_1"
1	"A1"	1	17	20	"female"	"right"	"Nadia"	10	"f50_0_p2_1_mono.wav"	"le café"	"no"	"yes"	"filler"	NA	"no"	827	1263	436	5	"yes"	"1"	"-spelling"	"17_1"
1	"A1"	1	17	20	"female"	"right"	"Nadia"	11	"f30_0_p4_1_mono.wav"	"le garçon"	"no"	"yes"	"filler"	NA	"no"	615	1662	1047	5	"yes"	"1"	"-spelling"	"17_1"
1	"A1"	1	17	20	"female"	"right"	"Nadia"	12	"n58_0_p1_1_mono.wav"	"la siture"	"no"	"no"	"filler"	NA	"no"	885	3736	2851	1	"yes"	"1"	"-spelling"	"17_1"
1	"A1"	1	17	20	"female"	"right"	"Nadia"	13	"n22_2_p3_1_mono.wav"	"le r'logue"	"no"	"no"	"filler"	"r"	"yes"	818	2612	1794	5	"no"	"1"	"-spelling"	"17_1"
1	"A1"	1	17	20	"female"	"right"	"Nadia"	14	"n74_0_p1_1_mono.wav"	"le camont"	"no"	"no"	"filler"	NA	"no"	665	1395	730	5	"no"	"1"	"-spelling"	"17_1"
1	"A1"	1	17	20	"female"	"right"	"Nadia"	15	"f61_1_p3_1_mono.wav"	"le semi"	"no"	"yes"	"filler"	"u"	"yes"	716	2471	1755	5	"yes"	"1"	"-spelling"	"17_1"
1	"A1"	1	17	20	"female"	"right"	"Nadia"	16	"n31_0_p1_1_mono.wav"	"l'annue"	"no"	"no"	"filler"	NA	"no"	692	1460	768	5	"no"	"1"	"-spelling"	"17_1"
1	"A1"	1	17	20	"female"	"right"	"Nadia"	17	"n01_2_p1_1_mono.wav"	"la b'rasse"	"no"	"no"	"filler"	"r"	"yes"	889	1961	1072	5	"no"	"1"	"-spelling"	"17_1"
1	"A1"	1	17	20	"female"	"right"	"Nadia"	18	"f62_1_p1_1_mono.wav"	"le ressort"	"no"	"yes"	"filler"	"u"	"yes"	881	1284	403	5	"yes"	"1"	"-spelling"	"17_1"
1	"A1"	1	17	20	"female"	"right"	"Nadia"	19	"n96_1_p2_1_mono.wav"	"la refare"	"no"	"no"	"filler"	"u"	"yes"	986	4042	3056	1	"yes"	"1"	"-spelling"	"17_1"
1	"A1"	1	17	20	"female"	"right"	"Nadia"	20	"n70_0_p1_1_mono.wav"	"la nale"	"no"	"no"	"filler"	NA	"no"	727	2424	1697	1	"yes"	"1"	"-spelling"	"17_1"
1	"A1"	1	17	20	"female"	"right"	"Nadia"	21	"f04_0_p2_1_mono.wav"	"la soeur"	"no"	"yes"	"filler"	NA	"no"	790	1150	360	5	"yes"	"1"	"-spelling"	"17_1"
1	"A1"	1	17	20	"female"	"right"	"Nadia"	22	"n89_1_p3_1_mono.wav"	"le rebil"	"no"	"no"	"filler"	"u"	"yes"	912	4239	3327	5	"no"	"1"	"-spelling"	"17_1"
1	"A1"	1	17	20	"female"	"right"	"Nadia"	23	"n60_0_p1_1_mono.wav"	"le tinge"	"no"	"no"	"filler"	NA	"no"	954	1592	638	5	"no"	"1"	"-spelling"	"17_1"
1	"A1"	1	17	20	"female"	"right"	"Nadia"	24	"t22_1_p4_2_mono.wav"	"le renard"	"yes"	"yes"	"match"	"u"	"yes"	935	1249	314	5	"yes"	"1"	"-spelling"	"17_1"
1	"A1"	1	17	20	"female"	"right"	"Nadia"	25	"n91_2_p3_1_mono.wav"	"le r'lide"	"no"	"no"	"filler"	"r"	"yes"	861	3625	2764	1	"yes"	"1"	"-spelling"	"17_1"
1	"A1"	1	17	20	"female"	"right"	"Nadia"	26	"f71_2_p1_1_mono.wav"	"le r'cord"	"no"	"yes"	"filler"	"r"	"yes"	866	1988	1122	5	"yes"	"1"	"-spelling"	"17_1"
1	"A1"	1	17	20	"female"	"right"	"Nadia"	27	"f03_0_p4_1_mono.wav"	"la nuit"	"no"	"yes"	"filler"	NA	"no"	735	1188	453	5	"yes"	"1"	"-spelling"	"17_1"
1	"A1"	1	17	20	"female"	"right"	"Nadia"	28	"n05_1_p4_1_mono.wav"	"le gegnoble"	"no"	"no"	"filler"	"u"	"yes"	987	3144	2157	5	"no"	"1"	"-spelling"	"17_1"
1	"A1"	1	17	20	"female"	"right"	"Nadia"	29	"n49_0_p2_1_mono.wav"	"la questier"	"no"	"no"	"filler"	NA	"no"	963	1850	887	5	"no"	"1"	"-spelling"	"17_1"
1	"A1"	1	17	20	"female"	"right"	"Nadia"	30	"n27_0_p2_1_mono.wav"	"la tuit"	"no"	"no"	"filler"	NA	"no"	916	1168	252	5	"no"	"1"	"-spelling"	"17_1"
1	"A1"	1	17	20	"female"	"right"	"Nadia"	31	"n39_0_p2_1_mono.wav"	"le grat"	"no"	"no"	"filler"	NA	"no"	621	1201	580	5	"no"	"1"	"-spelling"	"17_1"
1	"A1"	1	17	20	"female"	"right"	"Nadia"	32	"f19_0_p2_1_mono.wav"	"l'idée"	"no"	"yes"	"filler"	NA	"no"	796	1047	251	5	"yes"	"1"	"-spelling"	"17_1"
1	"A1"	1	17	20	"female"	"right"	"Nadia"	33	"n02_2_p2_1_mono.wav"	"la l'druche"	"no"	"no"	"filler"	"r"	"yes"	869	1888	1019	5	"no"	"1"	"-spelling"	"17_1"
1	"A1"	1	17	20	"female"	"right"	"Nadia"	34	"f41_0_p4_1_mono.wav"	"la carte"	"no"	"yes"	"filler"	NA	"no"	836	1093	257	5	"yes"	"1"	"-spelling"	"17_1"
1	"A1"	1	17	20	"female"	"right"	"Nadia"	35	"f47_0_p2_1_mono.wav"	"la route"	"no"	"yes"	"filler"	NA	"no"	797	967	170	5	"yes"	"1"	"-spelling"	"17_1"
1	"A1"	1	17	20	"female"	"right"	"Nadia"	36	"n09_2_p1_1_mono.wav"	"le f'mmeil"	"no"	"no"	"filler"	"r"	"yes"	927	1802	875	1	"yes"	"1"	"-spelling"	"17_1"
1	"A1"	1	17	20	"female"	"right"	"Nadia"	37	"t11_2_p3_2_mono.wav"	"le r'mous"	"yes"	"yes"	"mismatch"	"r"	"yes"	562	1647	1085	5	"yes"	"1"	"-spelling"	"17_1"
1	"A1"	1	17	20	"female"	"right"	"Nadia"	38	"n90_2_p2_1_mono.wav"	"le d'sseau"	"no"	"no"	"filler"	"r"	"yes"	683	3529	2846	5	"no"	"1"	"-spelling"	"17_1"
1	"A1"	1	17	20	"female"	"right"	"Nadia"	39	"f01_0_p4_1_mono.wav"	"l'oncle"	"no"	"yes"	"filler"	NA	"no"	764	1547	783	5	"yes"	"1"	"-spelling"	"17_1"
1	"A1"	1	17	20	"female"	"right"	"Nadia"	40	"f44_0_p1_1_mono.wav"	"la lettre"	"no"	"yes"	"filler"	NA	"no"	839	902	63	5	"yes"	"1"	"-spelling"	"17_1"
1	"A1"	1	17	20	"female"	"right"	"Nadia"	41	"n33_0_p2_1_mono.wav"	"la juisse"	"no"	"no"	"filler"	NA	"no"	912	1671	759	5	"no"	"1"	"-spelling"	"17_1"
1	"A1"	1	17	20	"female"	"right"	"Nadia"	42	"n44_0_p1_1_mono.wav"	"la fanouille"	"no"	"no"	"filler"	NA	"no"	852	4381	3529	5	"no"	"1"	"-spelling"	"17_1"
1	"A1"	1	17	20	"female"	"right"	"Nadia"	43	"n65_0_p4_1_mono.wav"	"la murte"	"no"	"no"	"filler"	NA	"no"	894	4222	3328	5	"no"	"1"	"-spelling"	"17_1"
1	"A1"	1	17	20	"female"	"right"	"Nadia"	44	"n62_0_p4_1_mono.wav"	"l'hosor"	"no"	"no"	"filler"	NA	"no"	774	2518	1744	5	"no"	"1"	"-spelling"	"17_1"
1	"A1"	1	17	20	"female"	"right"	"Nadia"	45	"f70_1_p1_1_mono.wav"	"le semestre"	"no"	"yes"	"filler"	"u"	"yes"	947	2127	1180	5	"yes"	"1"	"-spelling"	"17_1"
1	"A1"	1	17	20	"female"	"right"	"Nadia"	46	"t21_2_p3_2_mono.wav"	"le r'cul"	"yes"	"yes"	"mismatch"	"r"	"yes"	840	3378	2538	1	"no"	"1"	"-spelling"	"17_1"
1	"A1"	1	17	20	"female"	"right"	"Nadia"	47	"n69_0_p1_1_mono.wav"	"la madaine"	"no"	"no"	"filler"	NA	"no"	885	1767	882	5	"no"	"1"	"-spelling"	"17_1"
1	"A1"	1	17	20	"female"	"right"	"Nadia"	48	"f55_0_p4_1_mono.wav"	"le livre"	"no"	"yes"	"filler"	NA	"no"	872	1697	825	5	"yes"	"1"	"-spelling"	"17_1"
1	"A1"	1	17	20	"female"	"right"	"Nadia"	49	"f27_0_p1_1_mono.wav"	"le cadeau"	"no"	"yes"	"filler"	NA	"no"	604	1052	448	5	"yes"	"1"	"-spelling"	"17_1"
1	"A1"	1	17	20	"female"	"right"	"Nadia"	50	"n50_0_p2_1_mono.wav"	"la rille"	"no"	"no"	"filler"	NA	"no"	802	3876	3074	5	"no"	"1"	"-spelling"	"17_1"
1	"A1"	1	17	20	"female"	"right"	"Nadia"	51	"f45_0_p2_1_mono.wav"	"la madame"	"no"	"yes"	"filler"	NA	"no"	767	1466	699	5	"yes"	"1"	"-spelling"	"17_1"
1	"A1"	1	17	20	"female"	"right"	"Nadia"	52	"n20_1_p1_1_mono.wav"	"le mejet"	"no"	"no"	"filler"	"u"	"yes"	793	6418	5625	5	"no"	"1"	"-spelling"	"17_1"
1	"A1"	1	17	20	"female"	"right"	"Nadia"	53	"n35_0_p3_1_mono.wav"	"le missien"	"no"	"no"	"filler"	NA	"no"	721	1912	1191	5	"no"	"1"	"-spelling"	"17_1"
1	"A1"	1	17	20	"female"	"right"	"Nadia"	54	"n19_1_p3_1_mono.wav"	"le chedel"	"no"	"no"	"filler"	"u"	"yes"	870	3626	2756	5	"no"	"1"	"-spelling"	"17_1"
1	"A1"	1	17	20	"female"	"right"	"Nadia"	55	"n63_0_p1_1_mono.wav"	"la histienne"	"no"	"no"	"filler"	NA	"no"	786	1780	994	5	"no"	"1"	"-spelling"	"17_1"
1	"A1"	1	17	20	"female"	"right"	"Nadia"	56	"f18_0_p3_1_mono.wav"	"l'enfant"	"no"	"yes"	"filler"	NA	"no"	513	1014	501	5	"yes"	"1"	"-spelling"	"17_1"
1	"A1"	1	17	20	"female"	"right"	"Nadia"	57	"n64_0_p3_1_mono.wav"	"l'oune"	"no"	"no"	"filler"	NA	"no"	601	1918	1317	5	"no"	"1"	"-spelling"	"17_1"
1	"A1"	1	17	20	"female"	"right"	"Nadia"	58	"n52_0_p2_1_mono.wav"	"le drère"	"no"	"no"	"filler"	NA	"no"	819	2188	1369	1	"yes"	"1"	"-spelling"	"17_1"
1	"A1"	1	17	20	"female"	"right"	"Nadia"	59	"n11_1_p4_1_mono.wav"	"le refant"	"no"	"no"	"filler"	"u"	"yes"	700	1439	739	5	"no"	"1"	"-spelling"	"17_1"
1	"A1"	1	17	20	"female"	"right"	"Nadia"	60	"n61_0_p3_1_mono.wav"	"l'apure"	"no"	"no"	"filler"	NA	"no"	885	1265	380	5	"no"	"1"	"-spelling"	"17_1"
1	"A1"	1	17	20	"female"	"right"	"Nadia"	61	"t24_1_p2_2_mono.wav"	"le faisan"	"yes"	"yes"	"match"	"u"	"yes"	686	1433	747	5	"yes"	"1"	"-spelling"	"17_1"
1	"A1"	1	17	20	"female"	"right"	"Nadia"	62	"f57_0_p2_1_mono.wav"	"le prix"	"no"	"yes"	"filler"	NA	"no"	792	1417	625	5	"yes"	"1"	"-spelling"	"17_1"
1	"A1"	1	17	20	"female"	"right"	"Nadia"	63	"f53_0_p2_1_mono.wav"	"le groupe"	"no"	"yes"	"filler"	NA	"no"	744	1552	808	5	"yes"	"1"	"-spelling"	"17_1"
1	"A1"	1	17	20	"female"	"right"	"Nadia"	64	"n86_1_p3_1_mono.wav"	"le repire"	"no"	"no"	"filler"	"u"	"yes"	965	2736	1771	5	"no"	"1"	"-spelling"	"17_1"
1	"A1"	1	17	20	"female"	"right"	"Nadia"	65	"n76_0_p4_1_mono.wav"	"le tenre"	"no"	"no"	"filler"	NA	"no"	832	1370	538	5	"no"	"1"	"-spelling"	"17_1"
1	"A1"	1	17	20	"female"	"right"	"Nadia"	66	"t15_2_p2_2_mono.wav"	"la p'louse"	"yes"	"yes"	"mismatch"	"r"	"yes"	889	1470	581	5	"yes"	"1"	"-spelling"	"17_1"
1	"A1"	1	17	20	"female"	"right"	"Nadia"	67	"n17_2_p4_1_mono.wav"	"la s'gence"	"no"	"no"	"filler"	"r"	"yes"	1084	1317	233	5	"no"	"1"	"-spelling"	"17_1"
1	"A1"	1	17	20	"female"	"right"	"Nadia"	68	"t10_1_p1_2_mono.wav"	"le rebond"	"yes"	"yes"	"match"	"u"	"yes"	640	1076	436	5	"yes"	"1"	"-spelling"	"17_1"
1	"A1"	1	17	20	"female"	"right"	"Nadia"	69	"n34_0_p3_1_mono.wav"	"le teau"	"no"	"no"	"filler"	NA	"no"	473	1142	669	5	"no"	"1"	"-spelling"	"17_1"
1	"A1"	1	17	20	"female"	"right"	"Nadia"	70	"f40_0_p1_1_mono.wav"	"l'homme"	"no"	"yes"	"filler"	NA	"no"	638	1229	591	5	"yes"	"1"	"-spelling"	"17_1"
1	"A1"	1	17	20	"female"	"right"	"Nadia"	71	"f58_0_p1_1_mono.wav"	"le service"	"no"	"yes"	"filler"	NA	"no"	935	1204	269	5	"yes"	"1"	"-spelling"	"17_1"
1	"A1"	1	17	20	"female"	"right"	"Nadia"	72	"n13_1_p2_1_mono.wav"	"le seblème"	"no"	"no"	"filler"	"u"	"yes"	846	1169	323	5	"no"	"1"	"-spelling"	"17_1"
1	"A1"	1	17	20	"female"	"right"	"Nadia"	73	"n94_1_p2_1_mono.wav"	"le sequestre"	"no"	"no"	"filler"	"u"	"yes"	1007	2740	1733	5	"no"	"1"	"-spelling"	"17_1"
1	"A1"	1	17	20	"female"	"right"	"Nadia"	74	"n57_0_p1_1_mono.wav"	"le ratime"	"no"	"no"	"filler"	NA	"no"	859	2215	1356	5	"no"	"1"	"-spelling"	"17_1"
1	"A1"	1	17	20	"female"	"right"	"Nadia"	75	"n77_0_p4_1_mono.wav"	"le bruc"	"no"	"no"	"filler"	NA	"no"	880	3895	3015	5	"no"	"1"	"-spelling"	"17_1"
1	"A1"	1	17	20	"female"	"right"	"Nadia"	76	"f24_0_p2_1_mono.wav"	"la maison"	"no"	"yes"	"filler"	NA	"no"	625	939	314	5	"yes"	"1"	"-spelling"	"17_1"
1	"A1"	1	17	20	"female"	"right"	"Nadia"	77	"n45_0_p3_1_mono.wav"	"la horgune"	"no"	"no"	"filler"	NA	"no"	731	2761	2030	5	"no"	"1"	"-spelling"	"17_1"
1	"A1"	1	17	20	"female"	"right"	"Nadia"	78	"t04_1_p1_2_mono.wav"	"la reliure"	"yes"	"yes"	"match"	"u"	"yes"	1026	3394	2368	5	"yes"	"1"	"-spelling"	"17_1"
1	"A1"	1	17	20	"female"	"right"	"Nadia"	79	"f31_0_p3_1_mono.wav"	"le jour"	"no"	"yes"	"filler"	NA	"no"	878	1047	169	5	"yes"	"1"	"-spelling"	"17_1"
1	"A1"	1	17	20	"female"	"right"	"Nadia"	80	"n24_2_p4_1_mono.wav"	"le f'quon"	"no"	"no"	"filler"	"r"	"yes"	660	2559	1899	1	"yes"	"1"	"-spelling"	"17_1"
1	"A1"	1	17	20	"female"	"right"	"Nadia"	81	"n40_0_p3_1_mono.wav"	"l'équise"	"no"	"no"	"filler"	NA	"no"	872	1339	467	5	"no"	"1"	"-spelling"	"17_1"
1	"A1"	1	17	20	"female"	"right"	"Nadia"	82	"n59_0_p4_1_mono.wav"	"le solti"	"no"	"no"	"filler"	NA	"no"	856	1577	721	5	"no"	"1"	"-spelling"	"17_1"
1	"A1"	1	17	20	"female"	"right"	"Nadia"	83	"t16_1_p1_2_mono.wav"	"la peluche"	"yes"	"yes"	"match"	"u"	"yes"	846	1112	266	5	"yes"	"1"	"-spelling"	"17_1"
1	"A1"	1	17	20	"female"	"right"	"Nadia"	84	"f13_0_p4_1_mono.wav"	"le papier"	"no"	"yes"	"filler"	NA	"no"	977	1373	396	5	"yes"	"1"	"-spelling"	"17_1"
1	"A1"	1	17	20	"female"	"right"	"Nadia"	85	"f22_0_p3_1_mono.wav"	"la journée"	"no"	"yes"	"filler"	NA	"no"	793	1054	261	5	"yes"	"1"	"-spelling"	"17_1"
1	"A1"	1	17	20	"female"	"right"	"Nadia"	86	"f59_0_p2_1_mono.wav"	"le soleil"	"no"	"yes"	"filler"	NA	"no"	871	975	104	5	"yes"	"1"	"-spelling"	"17_1"
1	"A1"	1	17	20	"female"	"right"	"Nadia"	87	"f42_0_p1_1_mono.wav"	"la chance"	"no"	"yes"	"filler"	NA	"no"	807	1183	376	5	"yes"	"1"	"-spelling"	"17_1"
1	"A1"	1	17	20	"female"	"right"	"Nadia"	88	"n80_0_p2_1_mono.wav"	"le péhut"	"no"	"no"	"filler"	NA	"no"	988	2723	1735	5	"no"	"1"	"-spelling"	"17_1"
1	"A1"	1	17	20	"female"	"right"	"Nadia"	89	"n67_0_p2_1_mono.wav"	"la janne"	"no"	"no"	"filler"	NA	"no"	765	1382	617	5	"no"	"1"	"-spelling"	"17_1"
1	"A1"	1	17	20	"female"	"right"	"Nadia"	90	"f54_0_p1_1_mono.wav"	"le journal"	"no"	"yes"	"filler"	NA	"no"	910	1177	267	5	"yes"	"1"	"-spelling"	"17_1"
1	"A1"	1	17	20	"female"	"right"	"Nadia"	91	"f02_0_p2_1_mono.wav"	"la main"	"no"	"yes"	"filler"	NA	"no"	540	1475	935	5	"yes"	"1"	"-spelling"	"17_1"
1	"A1"	1	17	20	"female"	"right"	"Nadia"	92	"t14_1_p2_2_mono.wav"	"la chenille"	"yes"	"yes"	"match"	"u"	"yes"	938	1325	387	5	"yes"	"1"	"-spelling"	"17_1"
1	"A1"	1	17	20	"female"	"right"	"Nadia"	93	"n42_0_p1_1_mono.wav"	"l'endos"	"no"	"no"	"filler"	NA	"no"	588	2122	1534	5	"no"	"1"	"-spelling"	"17_1"
1	"A1"	1	17	20	"female"	"right"	"Nadia"	94	"f29_0_p3_1_mono.wav"	"le fromage"	"no"	"yes"	"filler"	NA	"no"	818	1262	444	5	"yes"	"1"	"-spelling"	"17_1"
1	"A1"	1	17	20	"female"	"right"	"Nadia"	95	"n38_0_p2_1_mono.wav"	"le suir"	"no"	"no"	"filler"	NA	"no"	855	2001	1146	1	"yes"	"1"	"-spelling"	"17_1"
1	"A1"	1	17	20	"female"	"right"	"Nadia"	96	"f65_2_p1_1_mono.wav"	"le r'paire"	"no"	"yes"	"filler"	"r"	"yes"	914	1751	837	5	"yes"	"1"	"-spelling"	"17_1"
1	"A1"	1	17	20	"female"	"right"	"Nadia"	97	"f56_0_p3_1_mono.wav"	"le pays"	"no"	"yes"	"filler"	NA	"no"	738	3056	2318	5	"yes"	"1"	"-spelling"	"17_1"
1	"A1"	1	17	20	"female"	"right"	"Nadia"	98	"n06_1_p2_1_mono.wav"	"le retal"	"no"	"no"	"filler"	"u"	"yes"	907	3181	2274	5	"no"	"1"	"-spelling"	"17_1"
1	"A1"	1	17	20	"female"	"right"	"Nadia"	99	"f21_0_p1_1_mono.wav"	"la horloge"	"no"	"yes"	"filler"	NA	"no"	691	1243	552	5	"yes"	"1"	"-spelling"	"17_1"
1	"A1"	1	17	20	"female"	"right"	"Nadia"	100	"t23_2_p2_2_mono.wav"	"la s'cousse"	"yes"	"yes"	"mismatch"	"r"	"yes"	865	3523	2658	1	"no"	"1"	"-spelling"	"17_1"
1	"A1"	1	17	20	"female"	"right"	"Nadia"	101	"f46_0_p1_1_mono.wav"	"la part"	"no"	"yes"	"filler"	NA	"no"	851	1736	885	5	"yes"	"1"	"-spelling"	"17_1"
1	"A1"	1	17	20	"female"	"right"	"Nadia"	102	"n87_1_p3_1_mono.wav"	"le chenache"	"no"	"no"	"filler"	"u"	"yes"	881	3167	2286	5	"no"	"1"	"-spelling"	"17_1"
1	"A1"	1	17	20	"female"	"right"	"Nadia"	103	"n43_0_p2_1_mono.wav"	"l'ivée"	"no"	"no"	"filler"	NA	"no"	804	4402	3598	5	"no"	"1"	"-spelling"	"17_1"
1	"A1"	1	17	20	"female"	"right"	"Nadia"	104	"n71_0_p3_1_mono.wav"	"la foite"	"no"	"no"	"filler"	NA	"no"	994	1937	943	5	"no"	"1"	"-spelling"	"17_1"
1	"A1"	1	17	20	"female"	"right"	"Nadia"	105	"n36_0_p1_1_mono.wav"	"le linde"	"no"	"no"	"filler"	NA	"no"	848	1794	946	1	"yes"	"1"	"-spelling"	"17_1"
1	"A1"	1	17	20	"female"	"right"	"Nadia"	106	"n78_0_p1_1_mono.wav"	"le jourlingue"	"no"	"no"	"filler"	NA	"no"	993	1336	343	5	"no"	"1"	"-spelling"	"17_1"
1	"A1"	1	17	20	"female"	"right"	"Nadia"	107	"f23_0_p1_1_mono.wav"	"la mère"	"no"	"yes"	"filler"	NA	"no"	902	1193	291	5	"yes"	"1"	"-spelling"	"17_1"
1	"A1"	1	17	20	"female"	"right"	"Nadia"	108	"f09_0_p2_1_mono.wav"	"la pièce"	"no"	"yes"	"filler"	NA	"no"	830	1163	333	5	"yes"	"1"	"-spelling"	"17_1"
1	"A1"	1	17	20	"female"	"right"	"Nadia"	109	"f36_0_p1_1_mono.wav"	"le type"	"no"	"yes"	"filler"	NA	"no"	965	1192	227	5	"yes"	"1"	"-spelling"	"17_1"
1	"A1"	1	17	20	"female"	"right"	"Nadia"	110	"f38_0_p3_1_mono.wav"	"l'hôtel"	"no"	"yes"	"filler"	NA	"no"	721	1046	325	5	"yes"	"1"	"-spelling"	"17_1"
1	"A1"	1	17	20	"female"	"right"	"Nadia"	111	"f20_0_p3_1_mono.wav"	"la famille"	"no"	"yes"	"filler"	NA	"no"	856	1006	150	5	"yes"	"1"	"-spelling"	"17_1"
1	"A1"	1	17	20	"female"	"right"	"Nadia"	112	"n93_2_p3_1_mono.wav"	"le r'vercle"	"no"	"no"	"filler"	"r"	"yes"	806	1679	873	5	"no"	"1"	"-spelling"	"17_1"
1	"A1"	1	17	20	"female"	"right"	"Nadia"	113	"f26_0_p1_1_mono.wav"	"la ville"	"no"	"yes"	"filler"	NA	"no"	741	849	108	5	"yes"	"1"	"-spelling"	"17_1"
1	"A1"	1	17	20	"female"	"right"	"Nadia"	114	"n18_1_p3_1_mono.wav"	"le reclin"	"no"	"no"	"filler"	"u"	"yes"	888	1878	990	1	"yes"	"1"	"-spelling"	"17_1"
1	"A1"	1	17	20	"female"	"right"	"Nadia"	115	"n32_0_p1_1_mono.wav"	"l'heule"	"no"	"no"	"filler"	NA	"no"	678	3098	2420	5	"no"	"1"	"-spelling"	"17_1"
1	"A1"	1	17	20	"female"	"right"	"Nadia"	116	"t01_2_p4_2_mono.wav"	"la b'lette"	"yes"	"yes"	"mismatch"	"r"	"yes"	879	1235	356	5	"yes"	"1"	"-spelling"	"17_1"
1	"A1"	1	17	20	"female"	"right"	"Nadia"	117	"n23_2_p1_1_mono.wav"	"la s'pave"	"no"	"no"	"filler"	"r"	"yes"	945	1552	607	5	"no"	"1"	"-spelling"	"17_1"
1	"A1"	1	17	20	"female"	"right"	"Nadia"	118	"t02_1_p1_2_mono.wav"	"la levrette"	"yes"	"yes"	"match"	"u"	"yes"	856	1291	435	5	"yes"	"1"	"-spelling"	"17_1"
1	"A1"	1	17	20	"female"	"right"	"Nadia"	119	"n30_0_p2_1_mono.wav"	"le pien"	"no"	"no"	"filler"	NA	"no"	691	1442	751	5	"no"	"1"	"-spelling"	"17_1"
1	"A1"	1	17	20	"female"	"right"	"Nadia"	120	"f39_0_p1_1_mono.wav"	"l'histoire"	"no"	"yes"	"filler"	NA	"no"	949	900	-49	5	"yes"	"1"	"-spelling"	"17_1"
1	"A1"	1	17	20	"female"	"right"	"Nadia"	121	"t08_1_p3_2_mono.wav"	"la semelle"	"yes"	"yes"	"match"	"u"	"yes"	916	1072	156	5	"yes"	"1"	"-spelling"	"17_1"
1	"A1"	1	17	20	"female"	"right"	"Nadia"	122	"f63_2_p4_1_mono.wav"	"le ch'val"	"no"	"yes"	"filler"	"r"	"yes"	779	1450	671	5	"yes"	"1"	"-spelling"	"17_1"
1	"A1"	1	17	20	"female"	"right"	"Nadia"	123	"n16_2_p4_1_mono.wav"	"la p'doche"	"no"	"no"	"filler"	"r"	"yes"	875	2237	1362	1	"yes"	"1"	"-spelling"	"17_1"
1	"A1"	1	17	20	"female"	"right"	"Nadia"	124	"t07_2_p1_2_mono.wav"	"la b'daine"	"yes"	"yes"	"mismatch"	"r"	"yes"	756	1160	404	5	"yes"	"1"	"-spelling"	"17_1"
1	"A1"	1	17	20	"female"	"right"	"Nadia"	125	"f17_0_p4_1_mono.wav"	"l'accord"	"no"	"yes"	"filler"	NA	"no"	866	1008	142	5	"yes"	"1"	"-spelling"	"17_1"
1	"A1"	1	17	20	"female"	"right"	"Nadia"	126	"t13_2_p3_2_mono.wav"	"le s'vrage"	"yes"	"yes"	"mismatch"	"r"	"yes"	998	1314	316	5	"yes"	"1"	"-spelling"	"17_1"
1	"A1"	1	17	20	"female"	"right"	"Nadia"	127	"f10_0_p2_1_mono.wav"	"le chat"	"no"	"yes"	"filler"	NA	"no"	582	857	275	5	"yes"	"1"	"-spelling"	"17_1"
1	"A1"	1	17	20	"female"	"right"	"Nadia"	128	"n48_0_p2_1_mono.wav"	"la mainou"	"no"	"no"	"filler"	NA	"no"	740	1444	704	5	"no"	"1"	"-spelling"	"17_1"
1	"A1"	1	17	20	"female"	"right"	"Nadia"	129	"f11_0_p2_1_mono.wav"	"le milieu"	"no"	"yes"	"filler"	NA	"no"	753	1061	308	5	"yes"	"1"	"-spelling"	"17_1"
1	"A1"	1	17	20	"female"	"right"	"Nadia"	130	"n46_0_p1_1_mono.wav"	"la jourcie"	"no"	"no"	"filler"	NA	"no"	930	2050	1120	5	"no"	"1"	"-spelling"	"17_1"
1	"A1"	1	17	20	"female"	"right"	"Nadia"	131	"f37_0_p2_1_mono.wav"	"l'amour"	"no"	"yes"	"filler"	NA	"no"	839	1242	403	5	"yes"	"1"	"-spelling"	"17_1"
1	"A1"	1	17	20	"female"	"right"	"Nadia"	132	"n53_0_p1_1_mono.wav"	"le frolège"	"no"	"no"	"filler"	NA	"no"	855	2975	2120	5	"no"	"1"	"-spelling"	"17_1"
1	"A1"	1	17	20	"female"	"right"	"Nadia"	133	"n88_1_p2_1_mono.wav"	"le messin"	"no"	"no"	"filler"	"u"	"yes"	704	2693	1989	1	"yes"	"1"	"-spelling"	"17_1"
1	"A1"	1	17	20	"female"	"right"	"Nadia"	134	"n47_0_p4_1_mono.wav"	"la nure"	"no"	"no"	"filler"	NA	"no"	829	1794	965	1	"yes"	"1"	"-spelling"	"17_1"
1	"A1"	1	17	20	"female"	"right"	"Nadia"	135	"n56_0_p3_1_mono.wav"	"le mossu"	"no"	"no"	"filler"	NA	"no"	820	1588	768	5	"no"	"1"	"-spelling"	"17_1"
1	"A1"	1	17	20	"female"	"right"	"Nadia"	136	"t03_2_p2_2_mono.wav"	"la m'notte"	"yes"	"yes"	"mismatch"	"r"	"yes"	889	1538	649	5	"yes"	"1"	"-spelling"	"17_1"
1	"A1"	1	17	20	"female"	"right"	"Nadia"	137	"n72_0_p3_1_mono.wav"	"la teune"	"no"	"no"	"filler"	NA	"no"	893	1676	783	5	"no"	"1"	"-spelling"	"17_1"
1	"A1"	1	17	20	"female"	"right"	"Nadia"	138	"f35_0_p4_1_mono.wav"	"le soldat"	"no"	"yes"	"filler"	NA	"no"	677	1204	527	5	"yes"	"1"	"-spelling"	"17_1"
1	"A1"	1	17	20	"female"	"right"	"Nadia"	139	"t06_1_p1_2_mono.wav"	"le recel"	"yes"	"yes"	"match"	"u"	"yes"	938	1250	312	5	"yes"	"1"	"-spelling"	"17_1"
1	"A1"	1	17	20	"female"	"right"	"Nadia"	140	"f25_0_p3_1_mono.wav"	"la question"	"no"	"yes"	"filler"	NA	"no"	728	988	260	5	"yes"	"1"	"-spelling"	"17_1"
1	"A1"	1	17	20	"female"	"right"	"Nadia"	141	"n14_1_p1_1_mono.wav"	"la chemaille"	"no"	"no"	"filler"	"u"	"yes"	797	1283	486	5	"no"	"1"	"-spelling"	"17_1"
1	"A1"	1	17	20	"female"	"right"	"Nadia"	142	"n79_0_p4_1_mono.wav"	"le tavre"	"no"	"no"	"filler"	NA	"no"	855	1395	540	5	"no"	"1"	"-spelling"	"17_1"
1	"A1"	1	17	20	"female"	"right"	"Nadia"	143	"f08_0_p4_1_mono.wav"	"l'heure"	"no"	"yes"	"filler"	NA	"no"	735	1121	386	5	"yes"	"1"	"-spelling"	"17_1"
1	"A1"	1	17	20	"female"	"right"	"Nadia"	144	"f33_0_p4_1_mono.wav"	"le rapport"	"no"	"yes"	"filler"	NA	"no"	872	1175	303	5	"yes"	"1"	"-spelling"	"17_1"
1	"A1"	1	17	20	"female"	"right"	"Nadia"	145	"n12_1_p1_1_mono.wav"	"le rechant"	"no"	"no"	"filler"	"u"	"yes"	686	987	301	5	"no"	"1"	"-spelling"	"17_1"
1	"A1"	1	17	20	"female"	"right"	"Nadia"	146	"f05_0_p2_1_mono.wav"	"le chien"	"no"	"yes"	"filler"	NA	"no"	668	1040	372	5	"yes"	"1"	"-spelling"	"17_1"
1	"A1"	1	17	20	"female"	"right"	"Nadia"	147	"f16_0_p4_1_mono.wav"	"l'école"	"no"	"yes"	"filler"	NA	"no"	771	1190	419	5	"yes"	"1"	"-spelling"	"17_1"
1	"A1"	1	17	20	"female"	"right"	"Nadia"	148	"t05_2_p3_2_mono.wav"	"le g'nièvre"	"yes"	"yes"	"mismatch"	"r"	"yes"	943	1193	250	5	"yes"	"1"	"-spelling"	"17_1"
1	"A1"	1	17	20	"female"	"right"	"Nadia"	149	"n25_0_p1_1_mono.wav"	"l'incre"	"no"	"no"	"filler"	NA	"no"	771	1709	938	5	"no"	"1"	"-spelling"	"17_1"
1	"A1"	1	17	20	"female"	"right"	"Nadia"	150	"f49_0_p2_1_mono.wav"	"le bureau"	"no"	"yes"	"filler"	NA	"no"	857	1063	206	5	"yes"	"1"	"-spelling"	"17_1"
1	"A1"	1	17	20	"female"	"right"	"Nadia"	151	"n51_0_p4_1_mono.wav"	"le caffant"	"no"	"no"	"filler"	NA	"no"	644	959	315	5	"no"	"1"	"-spelling"	"17_1"
1	"A1"	1	17	20	"female"	"right"	"Nadia"	152	"n81_0_p1_1_mono.wav"	"le croux"	"no"	"no"	"filler"	NA	"no"	720	968	248	5	"no"	"1"	"-spelling"	"17_1"
1	"A1"	1	17	20	"female"	"right"	"Nadia"	153	"n66_0_p2_1_mono.wav"	"la cance"	"no"	"no"	"filler"	NA	"no"	861	1326	465	5	"no"	"1"	"-spelling"	"17_1"
1	"A1"	1	17	20	"female"	"right"	"Nadia"	154	"f60_0_p1_1_mono.wav"	"le tour"	"no"	"yes"	"filler"	NA	"no"	839	1213	374	5	"yes"	"1"	"-spelling"	"17_1"
1	"A1"	1	17	20	"female"	"right"	"Nadia"	155	"f12_0_p4_1_mono.wav"	"le monde"	"no"	"yes"	"filler"	NA	"no"	723	1010	287	5	"yes"	"1"	"-spelling"	"17_1"
1	"A1"	1	17	20	"female"	"right"	"Nadia"	156	"f52_0_p2_1_mono.wav"	"le genre"	"no"	"yes"	"filler"	NA	"no"	889	874	-15	5	"yes"	"1"	"-spelling"	"17_1"
1	"A1"	1	17	20	"female"	"right"	"Nadia"	157	"t09_2_p2_2_mono.wav"	"le f'nouil"	"yes"	"yes"	"mismatch"	"r"	"yes"	820	1305	485	5	"yes"	"1"	"-spelling"	"17_1"
1	"A1"	1	17	20	"female"	"right"	"Nadia"	158	"n82_0_p2_1_mono.wav"	"le sermite"	"no"	"no"	"filler"	NA	"no"	876	2443	1567	5	"no"	"1"	"-spelling"	"17_1"
1	"A1"	1	17	20	"female"	"right"	"Nadia"	159	"n10_2_p3_1_mono.wav"	"le r'got"	"no"	"no"	"filler"	"r"	"yes"	787	1115	328	5	"no"	"1"	"-spelling"	"17_1"
1	"A1"	1	17	20	"female"	"right"	"Nadia"	160	"n08_2_p2_1_mono.wav"	"la s'cotte"	"no"	"no"	"filler"	"r"	"yes"	817	1041	224	5	"no"	"1"	"-spelling"	"17_1"
1	"A1"	1	17	20	"female"	"right"	"Nadia"	161	"n04_2_p4_1_mono.wav"	"la r'noise"	"no"	"no"	"filler"	"r"	"yes"	882	1999	1117	1	"yes"	"1"	"-spelling"	"17_1"
1	"A1"	1	17	20	"female"	"right"	"Nadia"	162	"n85_2_p1_1_mono.wav"	"le s'funt"	"no"	"no"	"filler"	"r"	"yes"	778	1187	409	5	"no"	"1"	"-spelling"	"17_1"
1	"A1"	1	17	20	"female"	"right"	"Nadia"	163	"n55_0_p3_1_mono.wav"	"le nourd"	"no"	"no"	"filler"	NA	"no"	876	1013	137	5	"no"	"1"	"-spelling"	"17_1"
1	"A1"	1	17	20	"female"	"right"	"Nadia"	164	"t19_2_p2_2_mono.wav"	"le ch'nil"	"yes"	"yes"	"mismatch"	"r"	"yes"	928	1445	517	5	"yes"	"1"	"-spelling"	"17_1"
1	"A1"	1	17	20	"female"	"right"	"Nadia"	165	"f15_0_p3_1_mono.wav"	"le train"	"no"	"yes"	"filler"	NA	"no"	648	880	232	5	"yes"	"1"	"-spelling"	"17_1"
1	"A1"	1	17	20	"female"	"right"	"Nadia"	166	"t20_1_p3_2_mono.wav"	"le meneau"	"yes"	"yes"	"match"	"u"	"yes"	629	990	361	5	"yes"	"1"	"-spelling"	"17_1"
1	"A1"	1	17	20	"female"	"right"	"Nadia"	167	"n07_1_p2_1_mono.wav"	"la bechesse"	"no"	"no"	"filler"	"u"	"yes"	898	1447	549	5	"no"	"1"	"-spelling"	"17_1"
1	"A1"	1	17	20	"female"	"right"	"Nadia"	168	"f51_0_p3_1_mono.wav"	"le chef"	"no"	"yes"	"filler"	NA	"no"	767	1791	1024	5	"yes"	"1"	"-spelling"	"17_1"
1	"A1"	1	17	20	"female"	"right"	"Nadia"	169	"f14_0_p2_1_mono.wav"	"le soir"	"no"	"yes"	"filler"	NA	"no"	891	1095	204	5	"yes"	"1"	"-spelling"	"17_1"
1	"A1"	1	17	20	"female"	"right"	"Nadia"	170	"n83_0_p4_1_mono.wav"	"le sogueil"	"no"	"no"	"filler"	NA	"no"	915	1052	137	5	"no"	"1"	"-spelling"	"17_1"
1	"A1"	1	17	20	"female"	"right"	"Nadia"	171	"n28_0_p1_1_mono.wav"	"la veure"	"no"	"no"	"filler"	NA	"no"	834	1911	1077	5	"no"	"1"	"-spelling"	"17_1"
1	"A1"	1	17	20	"female"	"right"	"Nadia"	172	"f43_0_p4_1_mono.wav"	"la femme"	"no"	"yes"	"filler"	NA	"no"	863	887	24	5	"yes"	"1"	"-spelling"	"17_1"
1	"A1"	1	17	20	"female"	"right"	"Nadia"	173	"n54_0_p1_1_mono.wav"	"le garfait"	"no"	"no"	"filler"	NA	"no"	936	1108	172	5	"no"	"1"	"-spelling"	"17_1"
1	"A1"	1	17	20	"female"	"right"	"Nadia"	174	"n68_0_p3_1_mono.wav"	"la moucle"	"no"	"no"	"filler"	NA	"no"	808	1074	266	5	"no"	"1"	"-spelling"	"17_1"
1	"A1"	1	17	20	"female"	"right"	"Nadia"	175	"f06_0_p2_1_mono.wav"	"le point"	"no"	"yes"	"filler"	NA	"no"	697	1084	387	5	"yes"	"1"	"-spelling"	"17_1"
1	"A1"	1	17	20	"female"	"right"	"Nadia"	176	"f48_0_p3_1_mono.wav"	"la scène"	"no"	"yes"	"filler"	NA	"no"	862	1071	209	5	"yes"	"1"	"-spelling"	"17_1"
1	"A1"	1	17	20	"female"	"right"	"Nadia"	177	"t12_1_p4_2_mono.wav"	"le requin"	"yes"	"yes"	"match"	"u"	"yes"	619	1169	550	5	"yes"	"1"	"-spelling"	"17_1"
1	"A1"	1	17	20	"female"	"right"	"Nadia"	178	"n84_0_p4_1_mono.wav"	"le vort"	"no"	"no"	"filler"	NA	"no"	798	1044	246	5	"no"	"1"	"-spelling"	"17_1"
1	"A1"	1	17	20	"female"	"right"	"Nadia"	179	"n37_0_p4_1_mono.wav"	"le padiot"	"no"	"no"	"filler"	NA	"no"	652	1626	974	5	"no"	"1"	"-spelling"	"17_1"
1	"A1"	1	17	20	"female"	"right"	"Nadia"	180	"t17_2_p4_2_mono.wav"	"la s'moule"	"yes"	"yes"	"mismatch"	"r"	"yes"	894	1483	589	5	"yes"	"1"	"-spelling"	"17_1"
1	"A1"	1	17	20	"female"	"right"	"Nadia"	181	"n95_2_p4_1_mono.wav"	"le r'pus"	"no"	"no"	"filler"	"r"	"yes"	927	1085	158	5	"no"	"1"	"-spelling"	"17_1"
1	"A1"	1	17	20	"female"	"right"	"Nadia"	182	"n92_2_p4_1_mono.wav"	"le r'gure"	"no"	"no"	"filler"	"r"	"yes"	878	939	61	5	"no"	"1"	"-spelling"	"17_1"
1	"A1"	1	17	20	"female"	"right"	"Nadia"	183	"n41_0_p2_1_mono.wav"	"l'agime"	"no"	"no"	"filler"	NA	"no"	766	950	184	5	"no"	"1"	"-spelling"	"17_1"
1	"A1"	1	17	20	"female"	"right"	"Nadia"	184	"f69_2_p2_1_mono.wav"	"le r'gistre"	"no"	"yes"	"filler"	"r"	"yes"	946	1198	252	5	"yes"	"1"	"-spelling"	"17_1"
1	"A1"	1	17	20	"female"	"right"	"Nadia"	185	"f07_0_p4_1_mono.wav"	"l'année"	"no"	"yes"	"filler"	NA	"no"	683	884	201	5	"yes"	"1"	"-spelling"	"17_1"
1	"A1"	1	17	20	"female"	"right"	"Nadia"	186	"n21_2_p1_1_mono.wav"	"le r'pèze"	"no"	"no"	"filler"	"r"	"yes"	831	1213	382	5	"no"	"1"	"-spelling"	"17_1"
1	"A1"	1	17	20	"female"	"right"	"Nadia"	187	"f28_0_p4_1_mono.wav"	"le frère"	"no"	"yes"	"filler"	NA	"no"	938	1171	233	5	"yes"	"1"	"-spelling"	"17_1"
1	"A1"	1	17	20	"female"	"right"	"Nadia"	188	"f64_1_p3_1_mono.wav"	"le melon"	"no"	"yes"	"filler"	"u"	"yes"	682	1565	883	5	"yes"	"1"	"-spelling"	"17_1"
1	"A1"	1	17	20	"female"	"right"	"Nadia"	189	"n26_0_p4_1_mono.wav"	"la jun"	"no"	"no"	"filler"	NA	"no"	568	983	415	5	"no"	"1"	"-spelling"	"17_1"
1	"A1"	1	17	20	"female"	"right"	"Nadia"	190	"f68_2_p4_1_mono.wav"	"le r'tard"	"no"	"yes"	"filler"	"r"	"yes"	935	2002	1067	1	"no"	"1"	"-spelling"	"17_1"
1	"A1"	1	17	20	"female"	"right"	"Nadia"	191	"n15_1_p1_1_mono.wav"	"la pessade"	"no"	"no"	"filler"	"u"	"yes"	854	1484	630	5	"no"	"1"	"-spelling"	"17_1"
1	"A1"	1	17	20	"female"	"right"	"Nadia"	192	"t18_1_p2_2_mono.wav"	"le reflet"	"yes"	"yes"	"match"	"u"	"yes"	845	1061	216	5	"yes"	"1"	"-spelling"	"17_1"
1	"A2"	1	11	18	"female"	"right"	"Ilse"	1	"f66_2_p2_1_mono.wav"	"le d'main"	"no"	"yes"	"filler"	"r"	"yes"	671	1224	553	5	"yes"	"1"	"-spelling"	"11_1"
1	"A2"	1	11	18	"female"	"right"	"Ilse"	2	"n75_0_p2_1_mono.wav"	"le fège"	"no"	"no"	"filler"	NA	"no"	882	1418	536	5	"no"	"1"	"-spelling"	"11_1"
1	"A2"	1	11	18	"female"	"right"	"Ilse"	3	"f34_0_p1_1_mono.wav"	"le silence"	"no"	"yes"	"filler"	NA	"no"	931	1465	534	5	"yes"	"1"	"-spelling"	"11_1"
1	"A2"	1	11	18	"female"	"right"	"Ilse"	4	"f72_1_p1_1_mono.wav"	"la revanche"	"no"	"yes"	"filler"	"u"	"yes"	900	1183	283	5	"yes"	"1"	"-spelling"	"11_1"
1	"A2"	1	11	18	"female"	"right"	"Ilse"	5	"n29_0_p2_1_mono.wav"	"le choint"	"no"	"no"	"filler"	NA	"no"	721	1057	336	1	"yes"	"1"	"-spelling"	"11_1"
1	"A2"	1	11	18	"female"	"right"	"Ilse"	6	"f67_1_p3_1_mono.wav"	"le refuge"	"no"	"yes"	"filler"	"u"	"yes"	888	1388	500	5	"yes"	"1"	"-spelling"	"11_1"
1	"A2"	1	11	18	"female"	"right"	"Ilse"	7	"f32_0_p4_1_mono.wav"	"le moment"	"no"	"yes"	"filler"	NA	"no"	534	1082	548	5	"yes"	"1"	"-spelling"	"11_1"
1	"A2"	1	11	18	"female"	"right"	"Ilse"	8	"n73_0_p1_1_mono.wav"	"le buveau"	"no"	"no"	"filler"	NA	"no"	615	1230	615	1	"yes"	"1"	"-spelling"	"11_1"
1	"A2"	1	11	18	"female"	"right"	"Ilse"	9	"n03_1_p1_1_mono.wav"	"la mequisse"	"no"	"no"	"filler"	"u"	"yes"	908	1453	545	1	"yes"	"1"	"-spelling"	"11_1"
1	"A2"	1	11	18	"female"	"right"	"Ilse"	10	"f50_0_p2_1_mono.wav"	"le café"	"no"	"yes"	"filler"	NA	"no"	827	1457	630	1	"no"	"1"	"-spelling"	"11_1"
1	"A2"	1	11	18	"female"	"right"	"Ilse"	11	"f30_0_p4_1_mono.wav"	"le garçon"	"no"	"yes"	"filler"	NA	"no"	615	852	237	5	"yes"	"1"	"-spelling"	"11_1"
1	"A2"	1	11	18	"female"	"right"	"Ilse"	12	"n58_0_p1_1_mono.wav"	"la siture"	"no"	"no"	"filler"	NA	"no"	885	1198	313	1	"yes"	"1"	"-spelling"	"11_1"
1	"A2"	1	11	18	"female"	"right"	"Ilse"	13	"n22_2_p3_1_mono.wav"	"le r'logue"	"no"	"no"	"filler"	"r"	"yes"	818	1255	437	5	"no"	"1"	"-spelling"	"11_1"
1	"A2"	1	11	18	"female"	"right"	"Ilse"	14	"n74_0_p1_1_mono.wav"	"le camont"	"no"	"no"	"filler"	NA	"no"	665	1110	445	1	"yes"	"1"	"-spelling"	"11_1"
1	"A2"	1	11	18	"female"	"right"	"Ilse"	15	"f61_1_p3_1_mono.wav"	"le semi"	"no"	"yes"	"filler"	"u"	"yes"	716	1244	528	1	"no"	"1"	"-spelling"	"11_1"
1	"A2"	1	11	18	"female"	"right"	"Ilse"	16	"n31_0_p1_1_mono.wav"	"l'annue"	"no"	"no"	"filler"	NA	"no"	692	1119	427	5	"no"	"1"	"-spelling"	"11_1"
1	"A2"	1	11	18	"female"	"right"	"Ilse"	17	"n01_2_p1_1_mono.wav"	"la b'rasse"	"no"	"no"	"filler"	"r"	"yes"	889	1088	199	5	"no"	"1"	"-spelling"	"11_1"
1	"A2"	1	11	18	"female"	"right"	"Ilse"	18	"f62_1_p1_1_mono.wav"	"le ressort"	"no"	"yes"	"filler"	"u"	"yes"	881	1236	355	5	"yes"	"1"	"-spelling"	"11_1"
1	"A2"	1	11	18	"female"	"right"	"Ilse"	19	"n96_1_p2_1_mono.wav"	"la refare"	"no"	"no"	"filler"	"u"	"yes"	986	1195	209	1	"yes"	"1"	"-spelling"	"11_1"
1	"A2"	1	11	18	"female"	"right"	"Ilse"	20	"n70_0_p1_1_mono.wav"	"la nale"	"no"	"no"	"filler"	NA	"no"	727	1346	619	1	"yes"	"1"	"-spelling"	"11_1"
1	"A2"	1	11	18	"female"	"right"	"Ilse"	21	"f04_0_p2_1_mono.wav"	"la soeur"	"no"	"yes"	"filler"	NA	"no"	790	922	132	5	"yes"	"1"	"-spelling"	"11_1"
1	"A2"	1	11	18	"female"	"right"	"Ilse"	22	"n89_1_p3_1_mono.wav"	"le rebil"	"no"	"no"	"filler"	"u"	"yes"	912	1125	213	1	"yes"	"1"	"-spelling"	"11_1"
1	"A2"	1	11	18	"female"	"right"	"Ilse"	23	"n60_0_p1_1_mono.wav"	"le tinge"	"no"	"no"	"filler"	NA	"no"	954	1356	402	5	"no"	"1"	"-spelling"	"11_1"
1	"A2"	1	11	18	"female"	"right"	"Ilse"	24	"t22_2_p3_2_mono.wav"	"le r'nard"	"yes"	"yes"	"mismatch"	"r"	"yes"	857	1304	447	5	"yes"	"1"	"-spelling"	"11_1"
1	"A2"	1	11	18	"female"	"right"	"Ilse"	25	"n91_2_p3_1_mono.wav"	"le r'lide"	"no"	"no"	"filler"	"r"	"yes"	861	1178	317	1	"yes"	"1"	"-spelling"	"11_1"
1	"A2"	1	11	18	"female"	"right"	"Ilse"	26	"f71_2_p1_1_mono.wav"	"le r'cord"	"no"	"yes"	"filler"	"r"	"yes"	866	1224	358	5	"yes"	"1"	"-spelling"	"11_1"
1	"A2"	1	11	18	"female"	"right"	"Ilse"	27	"f03_0_p4_1_mono.wav"	"la nuit"	"no"	"yes"	"filler"	NA	"no"	735	965	230	5	"yes"	"1"	"-spelling"	"11_1"
1	"A2"	1	11	18	"female"	"right"	"Ilse"	28	"n05_1_p4_1_mono.wav"	"le gegnoble"	"no"	"no"	"filler"	"u"	"yes"	987	1159	172	1	"yes"	"1"	"-spelling"	"11_1"
1	"A2"	1	11	18	"female"	"right"	"Ilse"	29	"n49_0_p2_1_mono.wav"	"la questier"	"no"	"no"	"filler"	NA	"no"	963	1256	293	1	"yes"	"1"	"-spelling"	"11_1"
1	"A2"	1	11	18	"female"	"right"	"Ilse"	30	"n27_0_p2_1_mono.wav"	"la tuit"	"no"	"no"	"filler"	NA	"no"	916	1133	217	1	"yes"	"1"	"-spelling"	"11_1"
1	"A2"	1	11	18	"female"	"right"	"Ilse"	31	"n39_0_p2_1_mono.wav"	"le grat"	"no"	"no"	"filler"	NA	"no"	621	1028	407	5	"no"	"1"	"-spelling"	"11_1"
1	"A2"	1	11	18	"female"	"right"	"Ilse"	32	"f19_0_p2_1_mono.wav"	"l'idée"	"no"	"yes"	"filler"	NA	"no"	796	1026	230	5	"yes"	"1"	"-spelling"	"11_1"
1	"A2"	1	11	18	"female"	"right"	"Ilse"	33	"n02_2_p2_1_mono.wav"	"la l'druche"	"no"	"no"	"filler"	"r"	"yes"	869	1130	261	1	"yes"	"1"	"-spelling"	"11_1"
1	"A2"	1	11	18	"female"	"right"	"Ilse"	34	"f41_0_p4_1_mono.wav"	"la carte"	"no"	"yes"	"filler"	NA	"no"	836	904	68	5	"yes"	"1"	"-spelling"	"11_1"
1	"A2"	1	11	18	"female"	"right"	"Ilse"	35	"f47_0_p2_1_mono.wav"	"la route"	"no"	"yes"	"filler"	NA	"no"	797	911	114	5	"yes"	"1"	"-spelling"	"11_1"
1	"A2"	1	11	18	"female"	"right"	"Ilse"	36	"n09_2_p1_1_mono.wav"	"le f'mmeil"	"no"	"no"	"filler"	"r"	"yes"	927	1019	92	1	"yes"	"1"	"-spelling"	"11_1"
1	"A2"	1	11	18	"female"	"right"	"Ilse"	37	"t11_1_p3_2_mono.wav"	"le remous"	"yes"	"yes"	"match"	"u"	"yes"	553	1004	451	1	"no"	"1"	"-spelling"	"11_1"
1	"A2"	1	11	18	"female"	"right"	"Ilse"	38	"n90_2_p2_1_mono.wav"	"le d'sseau"	"no"	"no"	"filler"	"r"	"yes"	683	1020	337	1	"yes"	"1"	"-spelling"	"11_1"
1	"A2"	1	11	18	"female"	"right"	"Ilse"	39	"f01_0_p4_1_mono.wav"	"l'oncle"	"no"	"yes"	"filler"	NA	"no"	764	1189	425	1	"no"	"1"	"-spelling"	"11_1"
1	"A2"	1	11	18	"female"	"right"	"Ilse"	40	"f44_0_p1_1_mono.wav"	"la lettre"	"no"	"yes"	"filler"	NA	"no"	839	1187	348	5	"yes"	"1"	"-spelling"	"11_1"
1	"A2"	1	11	18	"female"	"right"	"Ilse"	41	"n33_0_p2_1_mono.wav"	"la juisse"	"no"	"no"	"filler"	NA	"no"	912	1073	161	5	"no"	"1"	"-spelling"	"11_1"
1	"A2"	1	11	18	"female"	"right"	"Ilse"	42	"n44_0_p1_1_mono.wav"	"la fanouille"	"no"	"no"	"filler"	NA	"no"	852	1092	240	5	"no"	"1"	"-spelling"	"11_1"
1	"A2"	1	11	18	"female"	"right"	"Ilse"	43	"n65_0_p4_1_mono.wav"	"la murte"	"no"	"no"	"filler"	NA	"no"	894	1330	436	1	"yes"	"1"	"-spelling"	"11_1"
1	"A2"	1	11	18	"female"	"right"	"Ilse"	44	"n62_0_p4_1_mono.wav"	"l'hosor"	"no"	"no"	"filler"	NA	"no"	774	1100	326	1	"yes"	"1"	"-spelling"	"11_1"
1	"A2"	1	11	18	"female"	"right"	"Ilse"	45	"f70_1_p1_1_mono.wav"	"le semestre"	"no"	"yes"	"filler"	"u"	"yes"	947	1100	153	5	"yes"	"1"	"-spelling"	"11_1"
1	"A2"	1	11	18	"female"	"right"	"Ilse"	46	"t21_1_p1_2_mono.wav"	"le recul"	"yes"	"yes"	"match"	"u"	"yes"	833	1240	407	5	"yes"	"1"	"-spelling"	"11_1"
1	"A2"	1	11	18	"female"	"right"	"Ilse"	47	"n69_0_p1_1_mono.wav"	"la madaine"	"no"	"no"	"filler"	NA	"no"	885	1043	158	1	"yes"	"1"	"-spelling"	"11_1"
1	"A2"	1	11	18	"female"	"right"	"Ilse"	48	"f55_0_p4_1_mono.wav"	"le livre"	"no"	"yes"	"filler"	NA	"no"	872	1036	164	5	"yes"	"1"	"-spelling"	"11_1"
1	"A2"	1	11	18	"female"	"right"	"Ilse"	49	"f27_0_p1_1_mono.wav"	"le cadeau"	"no"	"yes"	"filler"	NA	"no"	604	966	362	5	"yes"	"1"	"-spelling"	"11_1"
1	"A2"	1	11	18	"female"	"right"	"Ilse"	50	"n50_0_p2_1_mono.wav"	"la rille"	"no"	"no"	"filler"	NA	"no"	802	1209	407	1	"yes"	"1"	"-spelling"	"11_1"
1	"A2"	1	11	18	"female"	"right"	"Ilse"	51	"f45_0_p2_1_mono.wav"	"la madame"	"no"	"yes"	"filler"	NA	"no"	767	930	163	5	"yes"	"1"	"-spelling"	"11_1"
1	"A2"	1	11	18	"female"	"right"	"Ilse"	52	"n20_1_p1_1_mono.wav"	"le mejet"	"no"	"no"	"filler"	"u"	"yes"	793	1263	470	5	"no"	"1"	"-spelling"	"11_1"
1	"A2"	1	11	18	"female"	"right"	"Ilse"	53	"n35_0_p3_1_mono.wav"	"le missien"	"no"	"no"	"filler"	NA	"no"	721	1294	573	1	"yes"	"1"	"-spelling"	"11_1"
1	"A2"	1	11	18	"female"	"right"	"Ilse"	54	"n19_1_p3_1_mono.wav"	"le chedel"	"no"	"no"	"filler"	"u"	"yes"	870	1021	151	1	"yes"	"1"	"-spelling"	"11_1"
1	"A2"	1	11	18	"female"	"right"	"Ilse"	55	"n63_0_p1_1_mono.wav"	"la histienne"	"no"	"no"	"filler"	NA	"no"	786	1059	273	1	"yes"	"1"	"-spelling"	"11_1"
1	"A2"	1	11	18	"female"	"right"	"Ilse"	56	"f18_0_p3_1_mono.wav"	"l'enfant"	"no"	"yes"	"filler"	NA	"no"	513	955	442	5	"yes"	"1"	"-spelling"	"11_1"
1	"A2"	1	11	18	"female"	"right"	"Ilse"	57	"n64_0_p3_1_mono.wav"	"l'oune"	"no"	"no"	"filler"	NA	"no"	601	978	377	1	"yes"	"1"	"-spelling"	"11_1"
1	"A2"	1	11	18	"female"	"right"	"Ilse"	58	"n52_0_p2_1_mono.wav"	"le drère"	"no"	"no"	"filler"	NA	"no"	819	1049	230	1	"yes"	"1"	"-spelling"	"11_1"
1	"A2"	1	11	18	"female"	"right"	"Ilse"	59	"n11_1_p4_1_mono.wav"	"le refant"	"no"	"no"	"filler"	"u"	"yes"	700	1441	741	1	"yes"	"1"	"-spelling"	"11_1"
1	"A2"	1	11	18	"female"	"right"	"Ilse"	60	"n61_0_p3_1_mono.wav"	"l'apure"	"no"	"no"	"filler"	NA	"no"	885	1124	239	5	"no"	"1"	"-spelling"	"11_1"
1	"A2"	1	11	18	"female"	"right"	"Ilse"	61	"t24_2_p1_2_mono.wav"	"le f'san"	"yes"	"yes"	"mismatch"	"r"	"yes"	573	869	296	5	"yes"	"1"	"-spelling"	"11_1"
1	"A2"	1	11	18	"female"	"right"	"Ilse"	62	"f57_0_p2_1_mono.wav"	"le prix"	"no"	"yes"	"filler"	NA	"no"	792	1342	550	5	"yes"	"1"	"-spelling"	"11_1"
1	"A2"	1	11	18	"female"	"right"	"Ilse"	63	"f53_0_p2_1_mono.wav"	"le groupe"	"no"	"yes"	"filler"	NA	"no"	744	1019	275	5	"yes"	"1"	"-spelling"	"11_1"
1	"A2"	1	11	18	"female"	"right"	"Ilse"	64	"n86_1_p3_1_mono.wav"	"le repire"	"no"	"no"	"filler"	"u"	"yes"	965	1426	461	5	"no"	"1"	"-spelling"	"11_1"
1	"A2"	1	11	18	"female"	"right"	"Ilse"	65	"n76_0_p4_1_mono.wav"	"le tenre"	"no"	"no"	"filler"	NA	"no"	832	1226	394	1	"yes"	"1"	"-spelling"	"11_1"
1	"A2"	1	11	18	"female"	"right"	"Ilse"	66	"t15_1_p3_2_mono.wav"	"la pelouse"	"yes"	"yes"	"match"	"u"	"yes"	1008	1404	396	5	"yes"	"1"	"-spelling"	"11_1"
1	"A2"	1	11	18	"female"	"right"	"Ilse"	67	"n17_2_p4_1_mono.wav"	"la s'gence"	"no"	"no"	"filler"	"r"	"yes"	1084	1409	325	5	"no"	"1"	"-spelling"	"11_1"
1	"A2"	1	11	18	"female"	"right"	"Ilse"	68	"t10_2_p2_2_mono.wav"	"le r'bond"	"yes"	"yes"	"mismatch"	"r"	"yes"	747	1168	421	5	"yes"	"1"	"-spelling"	"11_1"
1	"A2"	1	11	18	"female"	"right"	"Ilse"	69	"n34_0_p3_1_mono.wav"	"le teau"	"no"	"no"	"filler"	NA	"no"	473	996	523	5	"no"	"1"	"-spelling"	"11_1"
1	"A2"	1	11	18	"female"	"right"	"Ilse"	70	"f40_0_p1_1_mono.wav"	"l'homme"	"no"	"yes"	"filler"	NA	"no"	638	1078	440	1	"no"	"1"	"-spelling"	"11_1"
1	"A2"	1	11	18	"female"	"right"	"Ilse"	71	"f58_0_p1_1_mono.wav"	"le service"	"no"	"yes"	"filler"	NA	"no"	935	1788	853	5	"yes"	"1"	"-spelling"	"11_1"
1	"A2"	1	11	18	"female"	"right"	"Ilse"	72	"n13_1_p2_1_mono.wav"	"le seblème"	"no"	"no"	"filler"	"u"	"yes"	846	1360	514	5	"no"	"1"	"-spelling"	"11_1"
1	"A2"	1	11	18	"female"	"right"	"Ilse"	73	"n94_1_p2_1_mono.wav"	"le sequestre"	"no"	"no"	"filler"	"u"	"yes"	1007	1456	449	5	"no"	"1"	"-spelling"	"11_1"
1	"A2"	1	11	18	"female"	"right"	"Ilse"	74	"n57_0_p1_1_mono.wav"	"le ratime"	"no"	"no"	"filler"	NA	"no"	859	1146	287	1	"yes"	"1"	"-spelling"	"11_1"
1	"A2"	1	11	18	"female"	"right"	"Ilse"	75	"n77_0_p4_1_mono.wav"	"le bruc"	"no"	"no"	"filler"	NA	"no"	880	1372	492	1	"yes"	"1"	"-spelling"	"11_1"
1	"A2"	1	11	18	"female"	"right"	"Ilse"	76	"f24_0_p2_1_mono.wav"	"la maison"	"no"	"yes"	"filler"	NA	"no"	625	1116	491	1	"no"	"1"	"-spelling"	"11_1"
1	"A2"	1	11	18	"female"	"right"	"Ilse"	77	"n45_0_p3_1_mono.wav"	"la horgune"	"no"	"no"	"filler"	NA	"no"	731	983	252	1	"yes"	"1"	"-spelling"	"11_1"
1	"A2"	1	11	18	"female"	"right"	"Ilse"	78	"t04_2_p1_2_mono.wav"	"la r'liure"	"yes"	"yes"	"mismatch"	"r"	"yes"	946	1113	167	5	"yes"	"1"	"-spelling"	"11_1"
1	"A2"	1	11	18	"female"	"right"	"Ilse"	79	"f31_0_p3_1_mono.wav"	"le jour"	"no"	"yes"	"filler"	NA	"no"	878	1001	123	5	"yes"	"1"	"-spelling"	"11_1"
1	"A2"	1	11	18	"female"	"right"	"Ilse"	80	"n24_2_p4_1_mono.wav"	"le f'quon"	"no"	"no"	"filler"	"r"	"yes"	660	898	238	1	"yes"	"1"	"-spelling"	"11_1"
1	"A2"	1	11	18	"female"	"right"	"Ilse"	81	"n40_0_p3_1_mono.wav"	"l'équise"	"no"	"no"	"filler"	NA	"no"	872	1443	571	5	"no"	"1"	"-spelling"	"11_1"
1	"A2"	1	11	18	"female"	"right"	"Ilse"	82	"n59_0_p4_1_mono.wav"	"le solti"	"no"	"no"	"filler"	NA	"no"	856	1372	516	1	"yes"	"1"	"-spelling"	"11_1"
1	"A2"	1	11	18	"female"	"right"	"Ilse"	83	"t16_2_p2_2_mono.wav"	"la p'luche"	"yes"	"yes"	"mismatch"	"r"	"yes"	805	997	192	5	"yes"	"1"	"-spelling"	"11_1"
1	"A2"	1	11	18	"female"	"right"	"Ilse"	84	"f13_0_p4_1_mono.wav"	"le papier"	"no"	"yes"	"filler"	NA	"no"	977	1137	160	5	"yes"	"1"	"-spelling"	"11_1"
1	"A2"	1	11	18	"female"	"right"	"Ilse"	85	"f22_0_p3_1_mono.wav"	"la journée"	"no"	"yes"	"filler"	NA	"no"	793	991	198	5	"yes"	"1"	"-spelling"	"11_1"
1	"A2"	1	11	18	"female"	"right"	"Ilse"	86	"f59_0_p2_1_mono.wav"	"le soleil"	"no"	"yes"	"filler"	NA	"no"	871	959	88	5	"yes"	"1"	"-spelling"	"11_1"
1	"A2"	1	11	18	"female"	"right"	"Ilse"	87	"f42_0_p1_1_mono.wav"	"la chance"	"no"	"yes"	"filler"	NA	"no"	807	1072	265	5	"yes"	"1"	"-spelling"	"11_1"
1	"A2"	1	11	18	"female"	"right"	"Ilse"	88	"n80_0_p2_1_mono.wav"	"le péhut"	"no"	"no"	"filler"	NA	"no"	988	1476	488	1	"yes"	"1"	"-spelling"	"11_1"
1	"A2"	1	11	18	"female"	"right"	"Ilse"	89	"n67_0_p2_1_mono.wav"	"la janne"	"no"	"no"	"filler"	NA	"no"	765	969	204	5	"no"	"1"	"-spelling"	"11_1"
1	"A2"	1	11	18	"female"	"right"	"Ilse"	90	"f54_0_p1_1_mono.wav"	"le journal"	"no"	"yes"	"filler"	NA	"no"	910	1140	230	5	"yes"	"1"	"-spelling"	"11_1"
1	"A2"	1	11	18	"female"	"right"	"Ilse"	91	"f02_0_p2_1_mono.wav"	"la main"	"no"	"yes"	"filler"	NA	"no"	540	1478	938	5	"yes"	"1"	"-spelling"	"11_1"
1	"A2"	1	11	18	"female"	"right"	"Ilse"	92	"t14_2_p3_2_mono.wav"	"la ch'nille"	"yes"	"yes"	"mismatch"	"r"	"yes"	854	1131	277	5	"yes"	"1"	"-spelling"	"11_1"
1	"A2"	1	11	18	"female"	"right"	"Ilse"	93	"n42_0_p1_1_mono.wav"	"l'endos"	"no"	"no"	"filler"	NA	"no"	588	1422	834	1	"yes"	"1"	"-spelling"	"11_1"
1	"A2"	1	11	18	"female"	"right"	"Ilse"	94	"f29_0_p3_1_mono.wav"	"le fromage"	"no"	"yes"	"filler"	NA	"no"	818	913	95	5	"yes"	"1"	"-spelling"	"11_1"
1	"A2"	1	11	18	"female"	"right"	"Ilse"	95	"n38_0_p2_1_mono.wav"	"le suir"	"no"	"no"	"filler"	NA	"no"	855	1375	520	1	"yes"	"1"	"-spelling"	"11_1"
1	"A2"	1	11	18	"female"	"right"	"Ilse"	96	"f65_2_p1_1_mono.wav"	"le r'paire"	"no"	"yes"	"filler"	"r"	"yes"	914	1342	428	5	"yes"	"1"	"-spelling"	"11_1"
1	"A2"	1	11	18	"female"	"right"	"Ilse"	97	"f56_0_p3_1_mono.wav"	"le pays"	"no"	"yes"	"filler"	NA	"no"	738	1543	805	5	"yes"	"1"	"-spelling"	"11_1"
1	"A2"	1	11	18	"female"	"right"	"Ilse"	98	"n06_1_p2_1_mono.wav"	"le retal"	"no"	"no"	"filler"	"u"	"yes"	907	1415	508	1	"yes"	"1"	"-spelling"	"11_1"
1	"A2"	1	11	18	"female"	"right"	"Ilse"	99	"f21_0_p1_1_mono.wav"	"la horloge"	"no"	"yes"	"filler"	NA	"no"	691	1030	339	5	"yes"	"1"	"-spelling"	"11_1"
1	"A2"	1	11	18	"female"	"right"	"Ilse"	100	"t23_1_p3_2_mono.wav"	"la secousse"	"yes"	"yes"	"match"	"u"	"yes"	899	1691	792	1	"no"	"1"	"-spelling"	"11_1"
1	"A2"	1	11	18	"female"	"right"	"Ilse"	101	"f46_0_p1_1_mono.wav"	"la part"	"no"	"yes"	"filler"	NA	"no"	851	1304	453	1	"no"	"1"	"-spelling"	"11_1"
1	"A2"	1	11	18	"female"	"right"	"Ilse"	102	"n87_1_p3_1_mono.wav"	"le chenache"	"no"	"no"	"filler"	"u"	"yes"	881	1442	561	5	"no"	"1"	"-spelling"	"11_1"
1	"A2"	1	11	18	"female"	"right"	"Ilse"	103	"n43_0_p2_1_mono.wav"	"l'ivée"	"no"	"no"	"filler"	NA	"no"	804	1271	467	1	"yes"	"1"	"-spelling"	"11_1"
1	"A2"	1	11	18	"female"	"right"	"Ilse"	104	"n71_0_p3_1_mono.wav"	"la foite"	"no"	"no"	"filler"	NA	"no"	994	1400	406	1	"yes"	"1"	"-spelling"	"11_1"
1	"A2"	1	11	18	"female"	"right"	"Ilse"	105	"n36_0_p1_1_mono.wav"	"le linde"	"no"	"no"	"filler"	NA	"no"	848	1275	427	1	"yes"	"1"	"-spelling"	"11_1"
1	"A2"	1	11	18	"female"	"right"	"Ilse"	106	"n78_0_p1_1_mono.wav"	"le jourlingue"	"no"	"no"	"filler"	NA	"no"	993	1589	596	1	"yes"	"1"	"-spelling"	"11_1"
1	"A2"	1	11	18	"female"	"right"	"Ilse"	107	"f23_0_p1_1_mono.wav"	"la mère"	"no"	"yes"	"filler"	NA	"no"	902	1061	159	5	"yes"	"1"	"-spelling"	"11_1"
1	"A2"	1	11	18	"female"	"right"	"Ilse"	108	"f09_0_p2_1_mono.wav"	"la pièce"	"no"	"yes"	"filler"	NA	"no"	830	1106	276	1	"no"	"1"	"-spelling"	"11_1"
1	"A2"	1	11	18	"female"	"right"	"Ilse"	109	"f36_0_p1_1_mono.wav"	"le type"	"no"	"yes"	"filler"	NA	"no"	965	1184	219	5	"yes"	"1"	"-spelling"	"11_1"
1	"A2"	1	11	18	"female"	"right"	"Ilse"	110	"f38_0_p3_1_mono.wav"	"l'hôtel"	"no"	"yes"	"filler"	NA	"no"	721	959	238	5	"yes"	"1"	"-spelling"	"11_1"
1	"A2"	1	11	18	"female"	"right"	"Ilse"	111	"f20_0_p3_1_mono.wav"	"la famille"	"no"	"yes"	"filler"	NA	"no"	856	978	122	5	"yes"	"1"	"-spelling"	"11_1"
1	"A2"	1	11	18	"female"	"right"	"Ilse"	112	"n93_2_p3_1_mono.wav"	"le r'vercle"	"no"	"no"	"filler"	"r"	"yes"	806	1219	413	1	"yes"	"1"	"-spelling"	"11_1"
1	"A2"	1	11	18	"female"	"right"	"Ilse"	113	"f26_0_p1_1_mono.wav"	"la ville"	"no"	"yes"	"filler"	NA	"no"	741	995	254	5	"yes"	"1"	"-spelling"	"11_1"
1	"A2"	1	11	18	"female"	"right"	"Ilse"	114	"n18_1_p3_1_mono.wav"	"le reclin"	"no"	"no"	"filler"	"u"	"yes"	888	1221	333	1	"yes"	"1"	"-spelling"	"11_1"
1	"A2"	1	11	18	"female"	"right"	"Ilse"	115	"n32_0_p1_1_mono.wav"	"l'heule"	"no"	"no"	"filler"	NA	"no"	678	887	209	1	"yes"	"1"	"-spelling"	"11_1"
1	"A2"	1	11	18	"female"	"right"	"Ilse"	116	"t01_1_p2_2_mono.wav"	"la belette"	"yes"	"yes"	"match"	"u"	"yes"	930	1170	240	5	"yes"	"1"	"-spelling"	"11_1"
1	"A2"	1	11	18	"female"	"right"	"Ilse"	117	"n23_2_p1_1_mono.wav"	"la s'pave"	"no"	"no"	"filler"	"r"	"yes"	945	1217	272	1	"yes"	"1"	"-spelling"	"11_1"
1	"A2"	1	11	18	"female"	"right"	"Ilse"	118	"t02_2_p3_2_mono.wav"	"la l'vrette"	"yes"	"yes"	"mismatch"	"r"	"yes"	888	1109	221	5	"yes"	"1"	"-spelling"	"11_1"
1	"A2"	1	11	18	"female"	"right"	"Ilse"	119	"n30_0_p2_1_mono.wav"	"le pien"	"no"	"no"	"filler"	NA	"no"	691	1211	520	5	"no"	"1"	"-spelling"	"11_1"
1	"A2"	1	11	18	"female"	"right"	"Ilse"	120	"f39_0_p1_1_mono.wav"	"l'histoire"	"no"	"yes"	"filler"	NA	"no"	949	881	-68	5	"yes"	"1"	"-spelling"	"11_1"
1	"A2"	1	11	18	"female"	"right"	"Ilse"	121	"t08_2_p4_2_mono.wav"	"la s'melle"	"yes"	"yes"	"mismatch"	"r"	"yes"	879	1178	299	5	"yes"	"1"	"-spelling"	"11_1"
1	"A2"	1	11	18	"female"	"right"	"Ilse"	122	"f63_2_p4_1_mono.wav"	"le ch'val"	"no"	"yes"	"filler"	"r"	"yes"	779	1599	820	1	"no"	"1"	"-spelling"	"11_1"
1	"A2"	1	11	18	"female"	"right"	"Ilse"	123	"n16_2_p4_1_mono.wav"	"la p'doche"	"no"	"no"	"filler"	"r"	"yes"	875	1967	1092	1	"yes"	"1"	"-spelling"	"11_1"
1	"A2"	1	11	18	"female"	"right"	"Ilse"	124	"t07_1_p2_2_mono.wav"	"la bedaine"	"yes"	"yes"	"match"	"u"	"yes"	973	1478	505	1	"no"	"1"	"-spelling"	"11_1"
1	"A2"	1	11	18	"female"	"right"	"Ilse"	125	"f17_0_p4_1_mono.wav"	"l'accord"	"no"	"yes"	"filler"	NA	"no"	866	1096	230	5	"yes"	"1"	"-spelling"	"11_1"
1	"A2"	1	11	18	"female"	"right"	"Ilse"	126	"t13_1_p3_2_mono.wav"	"le sevrage"	"yes"	"yes"	"match"	"u"	"yes"	976	1339	363	1	"no"	"1"	"-spelling"	"11_1"
1	"A2"	1	11	18	"female"	"right"	"Ilse"	127	"f10_0_p2_1_mono.wav"	"le chat"	"no"	"yes"	"filler"	NA	"no"	582	1071	489	1	"no"	"1"	"-spelling"	"11_1"
1	"A2"	1	11	18	"female"	"right"	"Ilse"	128	"n48_0_p2_1_mono.wav"	"la mainou"	"no"	"no"	"filler"	NA	"no"	740	1248	508	1	"yes"	"1"	"-spelling"	"11_1"
1	"A2"	1	11	18	"female"	"right"	"Ilse"	129	"f11_0_p2_1_mono.wav"	"le milieu"	"no"	"yes"	"filler"	NA	"no"	753	993	240	5	"yes"	"1"	"-spelling"	"11_1"
1	"A2"	1	11	18	"female"	"right"	"Ilse"	130	"n46_0_p1_1_mono.wav"	"la jourcie"	"no"	"no"	"filler"	NA	"no"	930	1360	430	1	"yes"	"1"	"-spelling"	"11_1"
1	"A2"	1	11	18	"female"	"right"	"Ilse"	131	"f37_0_p2_1_mono.wav"	"l'amour"	"no"	"yes"	"filler"	NA	"no"	839	994	155	5	"yes"	"1"	"-spelling"	"11_1"
1	"A2"	1	11	18	"female"	"right"	"Ilse"	132	"n53_0_p1_1_mono.wav"	"le frolège"	"no"	"no"	"filler"	NA	"no"	855	1158	303	1	"yes"	"1"	"-spelling"	"11_1"
1	"A2"	1	11	18	"female"	"right"	"Ilse"	133	"n88_1_p2_1_mono.wav"	"le messin"	"no"	"no"	"filler"	"u"	"yes"	704	1216	512	1	"yes"	"1"	"-spelling"	"11_1"
1	"A2"	1	11	18	"female"	"right"	"Ilse"	134	"n47_0_p4_1_mono.wav"	"la nure"	"no"	"no"	"filler"	NA	"no"	829	1078	249	1	"yes"	"1"	"-spelling"	"11_1"
1	"A2"	1	11	18	"female"	"right"	"Ilse"	135	"n56_0_p3_1_mono.wav"	"le mossu"	"no"	"no"	"filler"	NA	"no"	820	936	116	1	"yes"	"1"	"-spelling"	"11_1"
1	"A2"	1	11	18	"female"	"right"	"Ilse"	136	"t03_1_p4_2_mono.wav"	"la menotte"	"yes"	"yes"	"match"	"u"	"yes"	947	1214	267	1	"no"	"1"	"-spelling"	"11_1"
1	"A2"	1	11	18	"female"	"right"	"Ilse"	137	"n72_0_p3_1_mono.wav"	"la teune"	"no"	"no"	"filler"	NA	"no"	893	1197	304	1	"yes"	"1"	"-spelling"	"11_1"
1	"A2"	1	11	18	"female"	"right"	"Ilse"	138	"f35_0_p4_1_mono.wav"	"le soldat"	"no"	"yes"	"filler"	NA	"no"	677	1271	594	5	"yes"	"1"	"-spelling"	"11_1"
1	"A2"	1	11	18	"female"	"right"	"Ilse"	139	"t06_2_p2_2_mono.wav"	"le r'cel"	"yes"	"yes"	"mismatch"	"r"	"yes"	902	1147	245	5	"yes"	"1"	"-spelling"	"11_1"
1	"A2"	1	11	18	"female"	"right"	"Ilse"	140	"f25_0_p3_1_mono.wav"	"la question"	"no"	"yes"	"filler"	NA	"no"	728	993	265	5	"yes"	"1"	"-spelling"	"11_1"
1	"A2"	1	11	18	"female"	"right"	"Ilse"	141	"n14_1_p1_1_mono.wav"	"la chemaille"	"no"	"no"	"filler"	"u"	"yes"	797	1289	492	1	"yes"	"1"	"-spelling"	"11_1"
1	"A2"	1	11	18	"female"	"right"	"Ilse"	142	"n79_0_p4_1_mono.wav"	"le tavre"	"no"	"no"	"filler"	NA	"no"	855	1809	954	1	"yes"	"1"	"-spelling"	"11_1"
1	"A2"	1	11	18	"female"	"right"	"Ilse"	143	"f08_0_p4_1_mono.wav"	"l'heure"	"no"	"yes"	"filler"	NA	"no"	735	1061	326	5	"yes"	"1"	"-spelling"	"11_1"
1	"A2"	1	11	18	"female"	"right"	"Ilse"	144	"f33_0_p4_1_mono.wav"	"le rapport"	"no"	"yes"	"filler"	NA	"no"	872	1300	428	5	"yes"	"1"	"-spelling"	"11_1"
1	"A2"	1	11	18	"female"	"right"	"Ilse"	145	"n12_1_p1_1_mono.wav"	"le rechant"	"no"	"no"	"filler"	"u"	"yes"	686	1152	466	1	"yes"	"1"	"-spelling"	"11_1"
1	"A2"	1	11	18	"female"	"right"	"Ilse"	146	"f05_0_p2_1_mono.wav"	"le chien"	"no"	"yes"	"filler"	NA	"no"	668	1320	652	5	"yes"	"1"	"-spelling"	"11_1"
1	"A2"	1	11	18	"female"	"right"	"Ilse"	147	"f16_0_p4_1_mono.wav"	"l'école"	"no"	"yes"	"filler"	NA	"no"	771	846	75	5	"yes"	"1"	"-spelling"	"11_1"
1	"A2"	1	11	18	"female"	"right"	"Ilse"	148	"t05_1_p2_2_mono.wav"	"le genièvre"	"yes"	"yes"	"match"	"u"	"yes"	967	1416	449	5	"yes"	"1"	"-spelling"	"11_1"
1	"A2"	1	11	18	"female"	"right"	"Ilse"	149	"n25_0_p1_1_mono.wav"	"l'incre"	"no"	"no"	"filler"	NA	"no"	771	1380	609	1	"yes"	"1"	"-spelling"	"11_1"
1	"A2"	1	11	18	"female"	"right"	"Ilse"	150	"f49_0_p2_1_mono.wav"	"le bureau"	"no"	"yes"	"filler"	NA	"no"	857	1054	197	5	"yes"	"1"	"-spelling"	"11_1"
1	"A2"	1	11	18	"female"	"right"	"Ilse"	151	"n51_0_p4_1_mono.wav"	"le caffant"	"no"	"no"	"filler"	NA	"no"	644	1225	581	1	"yes"	"1"	"-spelling"	"11_1"
1	"A2"	1	11	18	"female"	"right"	"Ilse"	152	"n81_0_p1_1_mono.wav"	"le croux"	"no"	"no"	"filler"	NA	"no"	720	1101	381	1	"yes"	"1"	"-spelling"	"11_1"
1	"A2"	1	11	18	"female"	"right"	"Ilse"	153	"n66_0_p2_1_mono.wav"	"la cance"	"no"	"no"	"filler"	NA	"no"	861	1395	534	1	"yes"	"1"	"-spelling"	"11_1"
1	"A2"	1	11	18	"female"	"right"	"Ilse"	154	"f60_0_p1_1_mono.wav"	"le tour"	"no"	"yes"	"filler"	NA	"no"	839	1307	468	5	"yes"	"1"	"-spelling"	"11_1"
1	"A2"	1	11	18	"female"	"right"	"Ilse"	155	"f12_0_p4_1_mono.wav"	"le monde"	"no"	"yes"	"filler"	NA	"no"	723	1089	366	5	"yes"	"1"	"-spelling"	"11_1"
1	"A2"	1	11	18	"female"	"right"	"Ilse"	156	"f52_0_p2_1_mono.wav"	"le genre"	"no"	"yes"	"filler"	NA	"no"	889	1509	620	5	"yes"	"1"	"-spelling"	"11_1"
1	"A2"	1	11	18	"female"	"right"	"Ilse"	157	"t09_1_p1_2_mono.wav"	"le fenouil"	"yes"	"yes"	"match"	"u"	"yes"	845	992	147	1	"no"	"1"	"-spelling"	"11_1"
1	"A2"	1	11	18	"female"	"right"	"Ilse"	158	"n82_0_p2_1_mono.wav"	"le sermite"	"no"	"no"	"filler"	NA	"no"	876	1096	220	1	"yes"	"1"	"-spelling"	"11_1"
1	"A2"	1	11	18	"female"	"right"	"Ilse"	159	"n10_2_p3_1_mono.wav"	"le r'got"	"no"	"no"	"filler"	"r"	"yes"	787	1202	415	1	"yes"	"1"	"-spelling"	"11_1"
1	"A2"	1	11	18	"female"	"right"	"Ilse"	160	"n08_2_p2_1_mono.wav"	"la s'cotte"	"no"	"no"	"filler"	"r"	"yes"	817	1119	302	5	"no"	"1"	"-spelling"	"11_1"
1	"A2"	1	11	18	"female"	"right"	"Ilse"	161	"n04_2_p4_1_mono.wav"	"la r'noise"	"no"	"no"	"filler"	"r"	"yes"	882	1394	512	1	"yes"	"1"	"-spelling"	"11_1"
1	"A2"	1	11	18	"female"	"right"	"Ilse"	162	"n85_2_p1_1_mono.wav"	"le s'funt"	"no"	"no"	"filler"	"r"	"yes"	778	1172	394	1	"yes"	"1"	"-spelling"	"11_1"
1	"A2"	1	11	18	"female"	"right"	"Ilse"	163	"n55_0_p3_1_mono.wav"	"le nourd"	"no"	"no"	"filler"	NA	"no"	876	1294	418	1	"yes"	"1"	"-spelling"	"11_1"
1	"A2"	1	11	18	"female"	"right"	"Ilse"	164	"t19_1_p3_2_mono.wav"	"le chenil"	"yes"	"yes"	"match"	"u"	"yes"	917	1073	156	5	"yes"	"1"	"-spelling"	"11_1"
1	"A2"	1	11	18	"female"	"right"	"Ilse"	165	"f15_0_p3_1_mono.wav"	"le train"	"no"	"yes"	"filler"	NA	"no"	648	1714	1066	1	"no"	"1"	"-spelling"	"11_1"
1	"A2"	1	11	18	"female"	"right"	"Ilse"	166	"t20_2_p3_2_mono.wav"	"le m'neau"	"yes"	"yes"	"mismatch"	"r"	"yes"	607	1055	448	1	"no"	"1"	"-spelling"	"11_1"
1	"A2"	1	11	18	"female"	"right"	"Ilse"	167	"n07_1_p2_1_mono.wav"	"la bechesse"	"no"	"no"	"filler"	"u"	"yes"	898	1152	254	1	"yes"	"1"	"-spelling"	"11_1"
1	"A2"	1	11	18	"female"	"right"	"Ilse"	168	"f51_0_p3_1_mono.wav"	"le chef"	"no"	"yes"	"filler"	NA	"no"	767	898	131	5	"yes"	"1"	"-spelling"	"11_1"
1	"A2"	1	11	18	"female"	"right"	"Ilse"	169	"f14_0_p2_1_mono.wav"	"le soir"	"no"	"yes"	"filler"	NA	"no"	891	1019	128	5	"yes"	"1"	"-spelling"	"11_1"
1	"A2"	1	11	18	"female"	"right"	"Ilse"	170	"n83_0_p4_1_mono.wav"	"le sogueil"	"no"	"no"	"filler"	NA	"no"	915	1331	416	1	"yes"	"1"	"-spelling"	"11_1"
1	"A2"	1	11	18	"female"	"right"	"Ilse"	171	"n28_0_p1_1_mono.wav"	"la veure"	"no"	"no"	"filler"	NA	"no"	834	925	91	1	"yes"	"1"	"-spelling"	"11_1"
1	"A2"	1	11	18	"female"	"right"	"Ilse"	172	"f43_0_p4_1_mono.wav"	"la femme"	"no"	"yes"	"filler"	NA	"no"	863	938	75	5	"yes"	"1"	"-spelling"	"11_1"
1	"A2"	1	11	18	"female"	"right"	"Ilse"	173	"n54_0_p1_1_mono.wav"	"le garfait"	"no"	"no"	"filler"	NA	"no"	936	1121	185	1	"yes"	"1"	"-spelling"	"11_1"
1	"A2"	1	11	18	"female"	"right"	"Ilse"	174	"n68_0_p3_1_mono.wav"	"la moucle"	"no"	"no"	"filler"	NA	"no"	808	968	160	1	"yes"	"1"	"-spelling"	"11_1"
1	"A2"	1	11	18	"female"	"right"	"Ilse"	175	"f06_0_p2_1_mono.wav"	"le point"	"no"	"yes"	"filler"	NA	"no"	697	1023	326	5	"yes"	"1"	"-spelling"	"11_1"
1	"A2"	1	11	18	"female"	"right"	"Ilse"	176	"f48_0_p3_1_mono.wav"	"la scène"	"no"	"yes"	"filler"	NA	"no"	862	966	104	1	"no"	"1"	"-spelling"	"11_1"
1	"A2"	1	11	18	"female"	"right"	"Ilse"	177	"t12_2_p4_2_mono.wav"	"le r'quin"	"yes"	"yes"	"mismatch"	"r"	"yes"	641	1373	732	5	"yes"	"1"	"-spelling"	"11_1"
1	"A2"	1	11	18	"female"	"right"	"Ilse"	178	"n84_0_p4_1_mono.wav"	"le vort"	"no"	"no"	"filler"	NA	"no"	798	950	152	1	"yes"	"1"	"-spelling"	"11_1"
1	"A2"	1	11	18	"female"	"right"	"Ilse"	179	"n37_0_p4_1_mono.wav"	"le padiot"	"no"	"no"	"filler"	NA	"no"	652	1077	425	1	"yes"	"1"	"-spelling"	"11_1"
1	"A2"	1	11	18	"female"	"right"	"Ilse"	180	"t17_1_p4_2_mono.wav"	"la semoule"	"yes"	"yes"	"match"	"u"	"yes"	875	1719	844	5	"yes"	"1"	"-spelling"	"11_1"
1	"A2"	1	11	18	"female"	"right"	"Ilse"	181	"n95_2_p4_1_mono.wav"	"le r'pus"	"no"	"no"	"filler"	"r"	"yes"	927	1289	362	1	"yes"	"1"	"-spelling"	"11_1"
1	"A2"	1	11	18	"female"	"right"	"Ilse"	182	"n92_2_p4_1_mono.wav"	"le r'gure"	"no"	"no"	"filler"	"r"	"yes"	878	1236	358	1	"yes"	"1"	"-spelling"	"11_1"
1	"A2"	1	11	18	"female"	"right"	"Ilse"	183	"n41_0_p2_1_mono.wav"	"l'agime"	"no"	"no"	"filler"	NA	"no"	766	1518	752	5	"no"	"1"	"-spelling"	"11_1"
1	"A2"	1	11	18	"female"	"right"	"Ilse"	184	"f69_2_p2_1_mono.wav"	"le r'gistre"	"no"	"yes"	"filler"	"r"	"yes"	946	1323	377	1	"no"	"1"	"-spelling"	"11_1"
1	"A2"	1	11	18	"female"	"right"	"Ilse"	185	"f07_0_p4_1_mono.wav"	"l'année"	"no"	"yes"	"filler"	NA	"no"	683	1331	648	1	"no"	"1"	"-spelling"	"11_1"
1	"A2"	1	11	18	"female"	"right"	"Ilse"	186	"n21_2_p1_1_mono.wav"	"le r'pèze"	"no"	"no"	"filler"	"r"	"yes"	831	1436	605	1	"yes"	"1"	"-spelling"	"11_1"
1	"A2"	1	11	18	"female"	"right"	"Ilse"	187	"f28_0_p4_1_mono.wav"	"le frère"	"no"	"yes"	"filler"	NA	"no"	938	1167	229	5	"yes"	"1"	"-spelling"	"11_1"
1	"A2"	1	11	18	"female"	"right"	"Ilse"	188	"f64_1_p3_1_mono.wav"	"le melon"	"no"	"yes"	"filler"	"u"	"yes"	682	1088	406	1	"no"	"1"	"-spelling"	"11_1"
1	"A2"	1	11	18	"female"	"right"	"Ilse"	189	"n26_0_p4_1_mono.wav"	"la jun"	"no"	"no"	"filler"	NA	"no"	568	933	365	5	"no"	"1"	"-spelling"	"11_1"
1	"A2"	1	11	18	"female"	"right"	"Ilse"	190	"f68_2_p4_1_mono.wav"	"le r'tard"	"no"	"yes"	"filler"	"r"	"yes"	935	1682	747	5	"yes"	"1"	"-spelling"	"11_1"
1	"A2"	1	11	18	"female"	"right"	"Ilse"	191	"n15_1_p1_1_mono.wav"	"la pessade"	"no"	"no"	"filler"	"u"	"yes"	854	1168	314	1	"yes"	"1"	"-spelling"	"11_1"
1	"A2"	1	11	18	"female"	"right"	"Ilse"	192	"t18_2_p3_2_mono.wav"	"le r'flet"	"yes"	"yes"	"mismatch"	"r"	"yes"	859	1189	330	5	"yes"	"1"	"-spelling"	"11_1"
1	"A2"	1	19	18	"female"	"right"	"Tijl"	1	"f66_2_p2_1_mono.wav"	"le d'main"	"no"	"yes"	"filler"	"r"	"yes"	671	3409	2738	5	"yes"	"1"	"-spelling"	"19_1"
1	"A2"	1	19	18	"female"	"right"	"Tijl"	2	"n75_0_p2_1_mono.wav"	"le fège"	"no"	"no"	"filler"	NA	"no"	882	1859	977	1	"yes"	"1"	"-spelling"	"19_1"
1	"A2"	1	19	18	"female"	"right"	"Tijl"	3	"f34_0_p1_1_mono.wav"	"le silence"	"no"	"yes"	"filler"	NA	"no"	931	1251	320	5	"yes"	"1"	"-spelling"	"19_1"
1	"A2"	1	19	18	"female"	"right"	"Tijl"	4	"f72_1_p1_1_mono.wav"	"la revanche"	"no"	"yes"	"filler"	"u"	"yes"	900	1603	703	5	"yes"	"1"	"-spelling"	"19_1"
1	"A2"	1	19	18	"female"	"right"	"Tijl"	5	"n29_0_p2_1_mono.wav"	"le choint"	"no"	"no"	"filler"	NA	"no"	721	1796	1075	1	"yes"	"1"	"-spelling"	"19_1"
1	"A2"	1	19	18	"female"	"right"	"Tijl"	6	"f67_1_p3_1_mono.wav"	"le refuge"	"no"	"yes"	"filler"	"u"	"yes"	888	1793	905	5	"yes"	"1"	"-spelling"	"19_1"
1	"A2"	1	19	18	"female"	"right"	"Tijl"	7	"f32_0_p4_1_mono.wav"	"le moment"	"no"	"yes"	"filler"	NA	"no"	534	1896	1362	5	"yes"	"1"	"-spelling"	"19_1"
1	"A2"	1	19	18	"female"	"right"	"Tijl"	8	"n73_0_p1_1_mono.wav"	"le buveau"	"no"	"no"	"filler"	NA	"no"	615	961	346	1	"yes"	"1"	"-spelling"	"19_1"
1	"A2"	1	19	18	"female"	"right"	"Tijl"	9	"n03_1_p1_1_mono.wav"	"la mequisse"	"no"	"no"	"filler"	"u"	"yes"	908	4122	3214	1	"yes"	"1"	"-spelling"	"19_1"
1	"A2"	1	19	18	"female"	"right"	"Tijl"	10	"f50_0_p2_1_mono.wav"	"le café"	"no"	"yes"	"filler"	NA	"no"	827	1220	393	1	"no"	"1"	"-spelling"	"19_1"
1	"A2"	1	19	18	"female"	"right"	"Tijl"	11	"f30_0_p4_1_mono.wav"	"le garçon"	"no"	"yes"	"filler"	NA	"no"	615	1092	477	5	"yes"	"1"	"-spelling"	"19_1"
1	"A2"	1	19	18	"female"	"right"	"Tijl"	12	"n58_0_p1_1_mono.wav"	"la siture"	"no"	"no"	"filler"	NA	"no"	885	3870	2985	1	"yes"	"1"	"-spelling"	"19_1"
1	"A2"	1	19	18	"female"	"right"	"Tijl"	13	"n22_2_p3_1_mono.wav"	"le r'logue"	"no"	"no"	"filler"	"r"	"yes"	818	1137	319	1	"yes"	"1"	"-spelling"	"19_1"
1	"A2"	1	19	18	"female"	"right"	"Tijl"	14	"n74_0_p1_1_mono.wav"	"le camont"	"no"	"no"	"filler"	NA	"no"	665	869	204	5	"no"	"1"	"-spelling"	"19_1"
1	"A2"	1	19	18	"female"	"right"	"Tijl"	15	"f61_1_p3_1_mono.wav"	"le semi"	"no"	"yes"	"filler"	"u"	"yes"	716	3302	2586	5	"yes"	"1"	"-spelling"	"19_1"
1	"A2"	1	19	18	"female"	"right"	"Tijl"	16	"n31_0_p1_1_mono.wav"	"l'annue"	"no"	"no"	"filler"	NA	"no"	692	1043	351	1	"yes"	"1"	"-spelling"	"19_1"
1	"A2"	1	19	18	"female"	"right"	"Tijl"	17	"n01_2_p1_1_mono.wav"	"la b'rasse"	"no"	"no"	"filler"	"r"	"yes"	889	1988	1099	5	"no"	"1"	"-spelling"	"19_1"
1	"A2"	1	19	18	"female"	"right"	"Tijl"	18	"f62_1_p1_1_mono.wav"	"le ressort"	"no"	"yes"	"filler"	"u"	"yes"	881	3658	2777	1	"no"	"1"	"-spelling"	"19_1"
1	"A2"	1	19	18	"female"	"right"	"Tijl"	19	"n96_1_p2_1_mono.wav"	"la refare"	"no"	"no"	"filler"	"u"	"yes"	986	1837	851	1	"yes"	"1"	"-spelling"	"19_1"
1	"A2"	1	19	18	"female"	"right"	"Tijl"	20	"n70_0_p1_1_mono.wav"	"la nale"	"no"	"no"	"filler"	NA	"no"	727	1580	853	1	"yes"	"1"	"-spelling"	"19_1"
1	"A2"	1	19	18	"female"	"right"	"Tijl"	21	"f04_0_p2_1_mono.wav"	"la soeur"	"no"	"yes"	"filler"	NA	"no"	790	1118	328	5	"yes"	"1"	"-spelling"	"19_1"
1	"A2"	1	19	18	"female"	"right"	"Tijl"	22	"n89_1_p3_1_mono.wav"	"le rebil"	"no"	"no"	"filler"	"u"	"yes"	912	4064	3152	1	"yes"	"1"	"-spelling"	"19_1"
1	"A2"	1	19	18	"female"	"right"	"Tijl"	23	"n60_0_p1_1_mono.wav"	"le tinge"	"no"	"no"	"filler"	NA	"no"	954	1599	645	1	"yes"	"1"	"-spelling"	"19_1"
1	"A2"	1	19	18	"female"	"right"	"Tijl"	24	"t22_2_p3_2_mono.wav"	"le r'nard"	"yes"	"yes"	"mismatch"	"r"	"yes"	857	1514	657	5	"yes"	"1"	"-spelling"	"19_1"
1	"A2"	1	19	18	"female"	"right"	"Tijl"	25	"n91_2_p3_1_mono.wav"	"le r'lide"	"no"	"no"	"filler"	"r"	"yes"	861	1795	934	1	"yes"	"1"	"-spelling"	"19_1"
1	"A2"	1	19	18	"female"	"right"	"Tijl"	26	"f71_2_p1_1_mono.wav"	"le r'cord"	"no"	"yes"	"filler"	"r"	"yes"	866	1950	1084	5	"yes"	"1"	"-spelling"	"19_1"
1	"A2"	1	19	18	"female"	"right"	"Tijl"	27	"f03_0_p4_1_mono.wav"	"la nuit"	"no"	"yes"	"filler"	NA	"no"	735	2530	1795	5	"yes"	"1"	"-spelling"	"19_1"
1	"A2"	1	19	18	"female"	"right"	"Tijl"	28	"n05_1_p4_1_mono.wav"	"le gegnoble"	"no"	"no"	"filler"	"u"	"yes"	987	2419	1432	1	"yes"	"1"	"-spelling"	"19_1"
1	"A2"	1	19	18	"female"	"right"	"Tijl"	29	"n49_0_p2_1_mono.wav"	"la questier"	"no"	"no"	"filler"	NA	"no"	963	1721	758	1	"yes"	"1"	"-spelling"	"19_1"
1	"A2"	1	19	18	"female"	"right"	"Tijl"	30	"n27_0_p2_1_mono.wav"	"la tuit"	"no"	"no"	"filler"	NA	"no"	916	2716	1800	1	"yes"	"1"	"-spelling"	"19_1"
1	"A2"	1	19	18	"female"	"right"	"Tijl"	31	"n39_0_p2_1_mono.wav"	"le grat"	"no"	"no"	"filler"	NA	"no"	621	1496	875	5	"no"	"1"	"-spelling"	"19_1"
1	"A2"	1	19	18	"female"	"right"	"Tijl"	32	"f19_0_p2_1_mono.wav"	"l'idée"	"no"	"yes"	"filler"	NA	"no"	796	2895	2099	1	"no"	"1"	"-spelling"	"19_1"
1	"A2"	1	19	18	"female"	"right"	"Tijl"	33	"n02_2_p2_1_mono.wav"	"la l'druche"	"no"	"no"	"filler"	"r"	"yes"	869	1759	890	1	"yes"	"1"	"-spelling"	"19_1"
1	"A2"	1	19	18	"female"	"right"	"Tijl"	34	"f41_0_p4_1_mono.wav"	"la carte"	"no"	"yes"	"filler"	NA	"no"	836	1481	645	5	"yes"	"1"	"-spelling"	"19_1"
1	"A2"	1	19	18	"female"	"right"	"Tijl"	35	"f47_0_p2_1_mono.wav"	"la route"	"no"	"yes"	"filler"	NA	"no"	797	1406	609	5	"yes"	"1"	"-spelling"	"19_1"
1	"A2"	1	19	18	"female"	"right"	"Tijl"	36	"n09_2_p1_1_mono.wav"	"le f'mmeil"	"no"	"no"	"filler"	"r"	"yes"	927	2186	1259	1	"yes"	"1"	"-spelling"	"19_1"
1	"A2"	1	19	18	"female"	"right"	"Tijl"	37	"t11_1_p3_2_mono.wav"	"le remous"	"yes"	"yes"	"match"	"u"	"yes"	553	1149	596	5	"yes"	"1"	"-spelling"	"19_1"
1	"A2"	1	19	18	"female"	"right"	"Tijl"	38	"n90_2_p2_1_mono.wav"	"le d'sseau"	"no"	"no"	"filler"	"r"	"yes"	683	1657	974	1	"yes"	"1"	"-spelling"	"19_1"
1	"A2"	1	19	18	"female"	"right"	"Tijl"	39	"f01_0_p4_1_mono.wav"	"l'oncle"	"no"	"yes"	"filler"	NA	"no"	764	1703	939	1	"no"	"1"	"-spelling"	"19_1"
1	"A2"	1	19	18	"female"	"right"	"Tijl"	40	"f44_0_p1_1_mono.wav"	"la lettre"	"no"	"yes"	"filler"	NA	"no"	839	1414	575	5	"yes"	"1"	"-spelling"	"19_1"
1	"A2"	1	19	18	"female"	"right"	"Tijl"	41	"n33_0_p2_1_mono.wav"	"la juisse"	"no"	"no"	"filler"	NA	"no"	912	1663	751	5	"no"	"1"	"-spelling"	"19_1"
1	"A2"	1	19	18	"female"	"right"	"Tijl"	42	"n44_0_p1_1_mono.wav"	"la fanouille"	"no"	"no"	"filler"	NA	"no"	852	2020	1168	5	"no"	"1"	"-spelling"	"19_1"
1	"A2"	1	19	18	"female"	"right"	"Tijl"	43	"n65_0_p4_1_mono.wav"	"la murte"	"no"	"no"	"filler"	NA	"no"	894	1029	135	1	"yes"	"1"	"-spelling"	"19_1"
1	"A2"	1	19	18	"female"	"right"	"Tijl"	44	"n62_0_p4_1_mono.wav"	"l'hosor"	"no"	"no"	"filler"	NA	"no"	774	2360	1586	5	"no"	"1"	"-spelling"	"19_1"
1	"A2"	1	19	18	"female"	"right"	"Tijl"	45	"f70_1_p1_1_mono.wav"	"le semestre"	"no"	"yes"	"filler"	"u"	"yes"	947	1443	496	5	"yes"	"1"	"-spelling"	"19_1"
1	"A2"	1	19	18	"female"	"right"	"Tijl"	46	"t21_1_p1_2_mono.wav"	"le recul"	"yes"	"yes"	"match"	"u"	"yes"	833	1215	382	5	"yes"	"1"	"-spelling"	"19_1"
1	"A2"	1	19	18	"female"	"right"	"Tijl"	47	"n69_0_p1_1_mono.wav"	"la madaine"	"no"	"no"	"filler"	NA	"no"	885	2633	1748	1	"yes"	"1"	"-spelling"	"19_1"
1	"A2"	1	19	18	"female"	"right"	"Tijl"	48	"f55_0_p4_1_mono.wav"	"le livre"	"no"	"yes"	"filler"	NA	"no"	872	1925	1053	5	"yes"	"1"	"-spelling"	"19_1"
1	"A2"	1	19	18	"female"	"right"	"Tijl"	49	"f27_0_p1_1_mono.wav"	"le cadeau"	"no"	"yes"	"filler"	NA	"no"	604	3552	2948	5	"yes"	"1"	"-spelling"	"19_1"
1	"A2"	1	19	18	"female"	"right"	"Tijl"	50	"n50_0_p2_1_mono.wav"	"la rille"	"no"	"no"	"filler"	NA	"no"	802	2029	1227	1	"yes"	"1"	"-spelling"	"19_1"
1	"A2"	1	19	18	"female"	"right"	"Tijl"	51	"f45_0_p2_1_mono.wav"	"la madame"	"no"	"yes"	"filler"	NA	"no"	767	1165	398	5	"yes"	"1"	"-spelling"	"19_1"
1	"A2"	1	19	18	"female"	"right"	"Tijl"	52	"n20_1_p1_1_mono.wav"	"le mejet"	"no"	"no"	"filler"	"u"	"yes"	793	2960	2167	1	"yes"	"1"	"-spelling"	"19_1"
1	"A2"	1	19	18	"female"	"right"	"Tijl"	53	"n35_0_p3_1_mono.wav"	"le missien"	"no"	"no"	"filler"	NA	"no"	721	2040	1319	1	"yes"	"1"	"-spelling"	"19_1"
1	"A2"	1	19	18	"female"	"right"	"Tijl"	54	"n19_1_p3_1_mono.wav"	"le chedel"	"no"	"no"	"filler"	"u"	"yes"	870	1667	797	1	"yes"	"1"	"-spelling"	"19_1"
1	"A2"	1	19	18	"female"	"right"	"Tijl"	55	"n63_0_p1_1_mono.wav"	"la histienne"	"no"	"no"	"filler"	NA	"no"	786	1543	757	1	"yes"	"1"	"-spelling"	"19_1"
1	"A2"	1	19	18	"female"	"right"	"Tijl"	56	"f18_0_p3_1_mono.wav"	"l'enfant"	"no"	"yes"	"filler"	NA	"no"	513	1737	1224	5	"yes"	"1"	"-spelling"	"19_1"
1	"A2"	1	19	18	"female"	"right"	"Tijl"	57	"n64_0_p3_1_mono.wav"	"l'oune"	"no"	"no"	"filler"	NA	"no"	601	1791	1190	1	"yes"	"1"	"-spelling"	"19_1"
1	"A2"	1	19	18	"female"	"right"	"Tijl"	58	"n52_0_p2_1_mono.wav"	"le drère"	"no"	"no"	"filler"	NA	"no"	819	1780	961	5	"no"	"1"	"-spelling"	"19_1"
1	"A2"	1	19	18	"female"	"right"	"Tijl"	59	"n11_1_p4_1_mono.wav"	"le refant"	"no"	"no"	"filler"	"u"	"yes"	700	1398	698	5	"no"	"1"	"-spelling"	"19_1"
1	"A2"	1	19	18	"female"	"right"	"Tijl"	60	"n61_0_p3_1_mono.wav"	"l'apure"	"no"	"no"	"filler"	NA	"no"	885	1720	835	5	"no"	"1"	"-spelling"	"19_1"
1	"A2"	1	19	18	"female"	"right"	"Tijl"	61	"t24_2_p1_2_mono.wav"	"le f'san"	"yes"	"yes"	"mismatch"	"r"	"yes"	573	4214	3641	1	"no"	"1"	"-spelling"	"19_1"
1	"A2"	1	19	18	"female"	"right"	"Tijl"	62	"f57_0_p2_1_mono.wav"	"le prix"	"no"	"yes"	"filler"	NA	"no"	792	1541	749	5	"yes"	"1"	"-spelling"	"19_1"
1	"A2"	1	19	18	"female"	"right"	"Tijl"	63	"f53_0_p2_1_mono.wav"	"le groupe"	"no"	"yes"	"filler"	NA	"no"	744	1202	458	1	"no"	"1"	"-spelling"	"19_1"
1	"A2"	1	19	18	"female"	"right"	"Tijl"	64	"n86_1_p3_1_mono.wav"	"le repire"	"no"	"no"	"filler"	"u"	"yes"	965	1539	574	1	"yes"	"1"	"-spelling"	"19_1"
1	"A2"	1	19	18	"female"	"right"	"Tijl"	65	"n76_0_p4_1_mono.wav"	"le tenre"	"no"	"no"	"filler"	NA	"no"	832	2040	1208	1	"yes"	"1"	"-spelling"	"19_1"
1	"A2"	1	19	18	"female"	"right"	"Tijl"	66	"t15_1_p3_2_mono.wav"	"la pelouse"	"yes"	"yes"	"match"	"u"	"yes"	1008	1444	436	5	"yes"	"1"	"-spelling"	"19_1"
1	"A2"	1	19	18	"female"	"right"	"Tijl"	67	"n17_2_p4_1_mono.wav"	"la s'gence"	"no"	"no"	"filler"	"r"	"yes"	1084	3676	2592	5	"no"	"1"	"-spelling"	"19_1"
1	"A2"	1	19	18	"female"	"right"	"Tijl"	68	"t10_2_p2_2_mono.wav"	"le r'bond"	"yes"	"yes"	"mismatch"	"r"	"yes"	747	2584	1837	5	"yes"	"1"	"-spelling"	"19_1"
1	"A2"	1	19	18	"female"	"right"	"Tijl"	69	"n34_0_p3_1_mono.wav"	"le teau"	"no"	"no"	"filler"	NA	"no"	473	1305	832	1	"yes"	"1"	"-spelling"	"19_1"
1	"A2"	1	19	18	"female"	"right"	"Tijl"	70	"f40_0_p1_1_mono.wav"	"l'homme"	"no"	"yes"	"filler"	NA	"no"	638	1629	991	1	"no"	"1"	"-spelling"	"19_1"
1	"A2"	1	19	18	"female"	"right"	"Tijl"	71	"f58_0_p1_1_mono.wav"	"le service"	"no"	"yes"	"filler"	NA	"no"	935	2849	1914	5	"yes"	"1"	"-spelling"	"19_1"
1	"A2"	1	19	18	"female"	"right"	"Tijl"	72	"n13_1_p2_1_mono.wav"	"le seblème"	"no"	"no"	"filler"	"u"	"yes"	846	3216	2370	5	"no"	"1"	"-spelling"	"19_1"
1	"A2"	1	19	18	"female"	"right"	"Tijl"	73	"n94_1_p2_1_mono.wav"	"le sequestre"	"no"	"no"	"filler"	"u"	"yes"	1007	5389	4382	5	"no"	"1"	"-spelling"	"19_1"
1	"A2"	1	19	18	"female"	"right"	"Tijl"	74	"n57_0_p1_1_mono.wav"	"le ratime"	"no"	"no"	"filler"	NA	"no"	859	2142	1283	1	"yes"	"1"	"-spelling"	"19_1"
1	"A2"	1	19	18	"female"	"right"	"Tijl"	75	"n77_0_p4_1_mono.wav"	"le bruc"	"no"	"no"	"filler"	NA	"no"	880	4423	3543	5	"no"	"1"	"-spelling"	"19_1"
1	"A2"	1	19	18	"female"	"right"	"Tijl"	76	"f24_0_p2_1_mono.wav"	"la maison"	"no"	"yes"	"filler"	NA	"no"	625	1016	391	5	"yes"	"1"	"-spelling"	"19_1"
1	"A2"	1	19	18	"female"	"right"	"Tijl"	77	"n45_0_p3_1_mono.wav"	"la horgune"	"no"	"no"	"filler"	NA	"no"	731	930	199	1	"yes"	"1"	"-spelling"	"19_1"
1	"A2"	1	19	18	"female"	"right"	"Tijl"	78	"t04_2_p1_2_mono.wav"	"la r'liure"	"yes"	"yes"	"mismatch"	"r"	"yes"	946	1304	358	1	"no"	"1"	"-spelling"	"19_1"
1	"A2"	1	19	18	"female"	"right"	"Tijl"	79	"f31_0_p3_1_mono.wav"	"le jour"	"no"	"yes"	"filler"	NA	"no"	878	1045	167	5	"yes"	"1"	"-spelling"	"19_1"
1	"A2"	1	19	18	"female"	"right"	"Tijl"	80	"n24_2_p4_1_mono.wav"	"le f'quon"	"no"	"no"	"filler"	"r"	"yes"	660	1215	555	1	"yes"	"1"	"-spelling"	"19_1"
1	"A2"	1	19	18	"female"	"right"	"Tijl"	81	"n40_0_p3_1_mono.wav"	"l'équise"	"no"	"no"	"filler"	NA	"no"	872	2526	1654	1	"yes"	"1"	"-spelling"	"19_1"
1	"A2"	1	19	18	"female"	"right"	"Tijl"	82	"n59_0_p4_1_mono.wav"	"le solti"	"no"	"no"	"filler"	NA	"no"	856	2502	1646	1	"yes"	"1"	"-spelling"	"19_1"
1	"A2"	1	19	18	"female"	"right"	"Tijl"	83	"t16_2_p2_2_mono.wav"	"la p'luche"	"yes"	"yes"	"mismatch"	"r"	"yes"	805	913	108	5	"yes"	"1"	"-spelling"	"19_1"
1	"A2"	1	19	18	"female"	"right"	"Tijl"	84	"f13_0_p4_1_mono.wav"	"le papier"	"no"	"yes"	"filler"	NA	"no"	977	4099	3122	1	"no"	"1"	"-spelling"	"19_1"
1	"A2"	1	19	18	"female"	"right"	"Tijl"	85	"f22_0_p3_1_mono.wav"	"la journée"	"no"	"yes"	"filler"	NA	"no"	793	1338	545	5	"yes"	"1"	"-spelling"	"19_1"
1	"A2"	1	19	18	"female"	"right"	"Tijl"	86	"f59_0_p2_1_mono.wav"	"le soleil"	"no"	"yes"	"filler"	NA	"no"	871	1237	366	5	"yes"	"1"	"-spelling"	"19_1"
1	"A2"	1	19	18	"female"	"right"	"Tijl"	87	"f42_0_p1_1_mono.wav"	"la chance"	"no"	"yes"	"filler"	NA	"no"	807	1062	255	5	"yes"	"1"	"-spelling"	"19_1"
1	"A2"	1	19	18	"female"	"right"	"Tijl"	88	"n80_0_p2_1_mono.wav"	"le péhut"	"no"	"no"	"filler"	NA	"no"	988	3992	3004	1	"yes"	"1"	"-spelling"	"19_1"
1	"A2"	1	19	18	"female"	"right"	"Tijl"	89	"n67_0_p2_1_mono.wav"	"la janne"	"no"	"no"	"filler"	NA	"no"	765	1198	433	1	"yes"	"1"	"-spelling"	"19_1"
1	"A2"	1	19	18	"female"	"right"	"Tijl"	90	"f54_0_p1_1_mono.wav"	"le journal"	"no"	"yes"	"filler"	NA	"no"	910	1089	179	5	"yes"	"1"	"-spelling"	"19_1"
1	"A2"	1	19	18	"female"	"right"	"Tijl"	91	"f02_0_p2_1_mono.wav"	"la main"	"no"	"yes"	"filler"	NA	"no"	540	1967	1427	1	"no"	"1"	"-spelling"	"19_1"
1	"A2"	1	19	18	"female"	"right"	"Tijl"	92	"t14_2_p3_2_mono.wav"	"la ch'nille"	"yes"	"yes"	"mismatch"	"r"	"yes"	854	1409	555	1	"no"	"1"	"-spelling"	"19_1"
1	"A2"	1	19	18	"female"	"right"	"Tijl"	93	"n42_0_p1_1_mono.wav"	"l'endos"	"no"	"no"	"filler"	NA	"no"	588	2435	1847	1	"yes"	"1"	"-spelling"	"19_1"
1	"A2"	1	19	18	"female"	"right"	"Tijl"	94	"f29_0_p3_1_mono.wav"	"le fromage"	"no"	"yes"	"filler"	NA	"no"	818	1037	219	5	"yes"	"1"	"-spelling"	"19_1"
1	"A2"	1	19	18	"female"	"right"	"Tijl"	95	"n38_0_p2_1_mono.wav"	"le suir"	"no"	"no"	"filler"	NA	"no"	855	2926	2071	1	"yes"	"1"	"-spelling"	"19_1"
1	"A2"	1	19	18	"female"	"right"	"Tijl"	96	"f65_2_p1_1_mono.wav"	"le r'paire"	"no"	"yes"	"filler"	"r"	"yes"	914	1762	848	5	"yes"	"1"	"-spelling"	"19_1"
1	"A2"	1	19	18	"female"	"right"	"Tijl"	97	"f56_0_p3_1_mono.wav"	"le pays"	"no"	"yes"	"filler"	NA	"no"	738	1263	525	1	"no"	"1"	"-spelling"	"19_1"
1	"A2"	1	19	18	"female"	"right"	"Tijl"	98	"n06_1_p2_1_mono.wav"	"le retal"	"no"	"no"	"filler"	"u"	"yes"	907	2628	1721	1	"yes"	"1"	"-spelling"	"19_1"
1	"A2"	1	19	18	"female"	"right"	"Tijl"	99	"f21_0_p1_1_mono.wav"	"la horloge"	"no"	"yes"	"filler"	NA	"no"	691	1262	571	1	"no"	"1"	"-spelling"	"19_1"
