set	Correct	Subject	SessionTime	Block	Response.ACC	Response.RESP	Response.RT	Stimulus	group	p_universally	p_french	p_dutch	r
t01	la belette	28	12:43:39	22	0	la belet	23123	de wezel	2	L	L	L	no
t01	la belette	24	11:12:07	22	1	la belette	7562	de wezel	2	L	L	L	no
t01	la belette	30	10:46:01	22	0		12589	de wezel	2	L	L	L	no
t01	la belette	36	13:25:02	22	0	le	3987	de wezel	2	L	L	L	no
t01	la belette	9	9:19:18	22	1	la belette	2786	de wezel	1	L	L	L	no
t01	la belette	18	9:14:27	22	1	la belette	4640	de wezel	2	L	L	L	no
t01	la belette	27	9:12:11	22	0	la bellouse	13703	de wezel	1	L	L	L	no
t01	la belette	14	11:56:44	22	1	la belette	4613	de wezel	2	L	L	L	no
t01	la belette	23	10:46:39	22	0	pas	4298	de wezel	1	L	L	L	no
t01	la belette	33	12:26:45	22	1	la belette	1327	de wezel	1	L	L	L	no
t01	la belette	10	16:44:14	22	0	le retart	2034	de wezel	2	L	L	L	no
t01	la belette	2	13:48:02	22	0	la semousse	30499	de wezel	2	L	L	L	no
t01	la belette	22	14:14:35	22	0	{?}	4989	de wezel	2	L	L	L	no
t01	la belette	15	14:49:18	22	0	le semille	3966	de wezel	1	L	L	L	no
t01	la belette	32	10:15:52	22	0	la bardette	9938	de wezel	2	L	L	L	no
t01	la belette	16	10:16:26	22	0	le	6075	de wezel	2	L	L	L	no
t01	la belette	34	14:47:38	22	0	le chenille	6426	de wezel	2	L	L	L	no
t01	la belette	13	11:13:58	22	0	la fenille	10492	de wezel	1	L	L	L	no
t01	la belette	42	14:23:45	22	1	la belette	12578	de wezel	1	L	L	L	no
t01	la belette	3	9:16:47	22	0	{?}	1957	de wezel	1	L	L	L	no
t01	la belette	7	13:22:54	22	0	la meneau	26263	de wezel	1	L	L	L	no
t01	la belette	29	10:16:37	22	0	la bedaine	9049	de wezel	1	L	L	L	no
t01	la belette	41	9:42:21	22	1	la belette	4331	de wezel	1	L	L	L	no
t01	la belette	25	9:23:33	22	0	la balette	2661	de wezel	1	L	L	L	no
t01	la belette	5	13:15:07	22	0	le be{.}{.}{.}	4360	de wezel	1	L	L	L	no
t01	la belette	8	12:41:56	22	0		2630	de wezel	2	L	L	L	no
t01	la belette	26	14:24:22	22	0	la wesse	20164	de wezel	2	L	L	L	no
t01	la belette	20	16:51:09	22	0	le lebevrette	14503	de wezel	2	L	L	L	no
t01	la belette	21	10:18:59	22	0	La repette	4587	de wezel	1	L	L	L	no
t01	la belette	35	12:12:35	22	1	la belette	3710	de wezel	1	L	L	L	no
t01	la belette	12	10:15:38	22	0	{.}	9333	de wezel	2	L	L	L	no
t01	la belette	6	11:47:48	22	0	le laleen	6984	de wezel	2	L	L	L	no
t01	la belette	11	9:23:20	22	0	la balette	10362	de wezel	1	L	L	L	no
t01	la belette	17	13:48:17	22	1	la belette	4885	de wezel	1	L	L	L	no
t02	la levrette	36	13:25:02	6	1	la levrette	6784	de windhond	2	I	I	I	no
t02	la levrette	34	14:47:38	6	0	le cheni	12079	de windhond	2	I	I	I	no
t02	la levrette	3	9:16:47	6	0	la luvrette	3033	de windhond	1	I	I	I	no
t02	la levrette	10	16:44:14	6	0	la frette	2362	de windhond	2	I	I	I	no
t02	la levrette	12	10:15:38	6	0	le fenette	4050	de windhond	2	I	I	I	no
t02	la levrette	23	10:46:39	6	1	la levrette	4300	de windhond	1	I	I	I	no
t02	la levrette	8	12:41:56	6	0	le vrette	8928	de windhond	2	I	I	I	no
t02	la levrette	11	9:23:20	6	0	la chevret	14999	de windhond	1	I	I	I	no
t02	la levrette	24	11:12:07	6	1	la levrette	2331	de windhond	2	I	I	I	no
t02	la levrette	27	9:12:11	6	1	la levrette	8300	de windhond	1	I	I	I	no
t02	la levrette	18	9:14:27	6	0	la blette	9703	de windhond	2	I	I	I	no
t02	la levrette	17	13:48:17	6	1	la levrette	11745	de windhond	1	I	I	I	no
t02	la levrette	33	12:26:45	6	1	la levrette	3304	de windhond	1	I	I	I	no
t02	la levrette	14	11:56:44	6	0	le levrette	2487	de windhond	2	I	I	I	no
t02	la levrette	6	11:47:48	6	0	le farata	10083	de windhond	2	I	I	I	no
t02	la levrette	7	13:22:54	6	1	la levrette	5059	de windhond	1	I	I	I	no
t02	la levrette	22	14:14:35	6	0	{?}	1116	de windhond	2	I	I	I	no
t02	la levrette	13	11:13:58	6	0	le	9094	de windhond	1	I	I	I	no
t02	la levrette	29	10:16:37	6	1	la levrette	5793	de windhond	1	I	I	I	no
t02	la levrette	32	10:15:52	6	0	le lavette	6225	de windhond	2	I	I	I	no
t02	la levrette	2	13:48:02	6	1	la levrette	4734	de windhond	2	I	I	I	no
t02	la levrette	20	16:51:09	6	1	la levrette	7728	de windhond	2	I	I	I	no
t02	la levrette	42	14:23:45	6	1	la levrette	5340	de windhond	1	I	I	I	no
t02	la levrette	5	13:15:07	6	0	le heuvre{.}{.}{.}	23320	de windhond	1	I	I	I	no
t02	la levrette	16	10:16:26	6	1	la levrette	4789	de windhond	2	I	I	I	no
t02	la levrette	35	12:12:35	6	0	le levrage	6915	de windhond	1	I	I	I	no
t02	la levrette	26	14:24:22	6	0	le chien	13426	de windhond	2	I	I	I	no
t02	la levrette	15	14:49:18	6	0	de trequin	7704	de windhond	1	I	I	I	no
t02	la levrette	28	12:43:39	6	1	la levrette	22745	de windhond	2	I	I	I	no
t02	la levrette	21	10:18:59	6	0	Le repette	7998	de windhond	1	I	I	I	no
t02	la levrette	25	9:23:33	6	0	le rechien	5041	de windhond	1	I	I	I	no
t02	la levrette	30	10:46:01	6	0	la sevrege	12734	de windhond	2	I	I	I	no
t02	la levrette	41	9:42:21	6	0	la levette	4938	de windhond	1	I	I	I	no
t02	la levrette	9	9:19:18	6	0	la secout	3979	de windhond	1	I	I	I	no
t03	la menotte	22	14:14:35	11	0	la remoulle	9749	het handje	2	I	I	I	no
t03	la menotte	32	10:15:52	11	0	le menotte	4665	het handje	2	I	I	I	no
t03	la menotte	11	9:23:20	11	0	la {?}	25326	het handje	1	I	I	I	no
t03	la menotte	18	9:14:27	11	0	la manotte	4079	het handje	2	I	I	I	no
t03	la menotte	23	10:46:39	11	0	la moulette	6471	het handje	1	I	I	I	no
t03	la menotte	30	10:46:01	11	0	geen idee	16174	het handje	2	I	I	I	no
t03	la menotte	27	9:12:11	11	0	le menand	15821	het handje	1	I	I	I	no
t03	la menotte	8	12:41:56	11	0	la mounette	9143	het handje	2	I	I	I	no
t03	la menotte	14	11:56:44	11	0	le menot	23407	het handje	2	I	I	I	no
t03	la menotte	10	16:44:14	11	0	le piret	2240	het handje	2	I	I	I	no
t03	la menotte	21	10:18:59	11	0	Le m nog wat	9380	het handje	1	I	I	I	no
t03	la menotte	7	13:22:54	11	0	la meneau	20610	het handje	1	I	I	I	no
t03	la menotte	28	12:43:39	11	0	le menotte	4387	het handje	2	I	I	I	no
t03	la menotte	34	14:47:38	11	0	la menoit	32557	het handje	2	I	I	I	no
t03	la menotte	16	10:16:26	11	1	la menotte	1587	het handje	2	I	I	I	no
t03	la menotte	5	13:15:07	11	0	le menotte	2771	het handje	1	I	I	I	no
t03	la menotte	17	13:48:17	11	1	la menotte	2652	het handje	1	I	I	I	no
t03	la menotte	13	11:13:58	11	1	la menotte	5020	het handje	1	I	I	I	no
t03	la menotte	3	9:16:47	11	0	le mounette	2615	het handje	1	I	I	I	no
t03	la menotte	24	11:12:07	11	0	le menotte	8792	het handje	2	I	I	I	no
t03	la menotte	42	14:23:45	11	1	la menotte	8845	het handje	1	I	I	I	no
t03	la menotte	9	9:19:18	11	0	le menotte	5047	het handje	1	I	I	I	no
t03	la menotte	33	12:26:45	11	1	la menotte	1553	het handje	1	I	I	I	no
t03	la menotte	36	13:25:02	11	1	la menotte	6497	het handje	2	I	I	I	no
t03	la menotte	2	13:48:02	11	0	le menaris	28885	het handje	2	I	I	I	no
t03	la menotte	25	9:23:33	11	0	le main	6815	het handje	1	I	I	I	no
t03	la menotte	6	11:47:48	11	0	la mamain	3344	het handje	2	I	I	I	no
t03	la menotte	35	12:12:35	11	1	la menotte	4963	het handje	1	I	I	I	no
t03	la menotte	20	16:51:09	11	0	le manotte	17154	het handje	2	I	I	I	no
t03	la menotte	15	14:49:18	11	0	le maneute	7202	het handje	1	I	I	I	no
t03	la menotte	12	10:15:38	11	0	le menOtte	4869	het handje	2	I	I	I	no
t03	la menotte	29	10:16:37	11	1	la menotte	2589	het handje	1	I	I	I	no
t03	la menotte	41	9:42:21	11	1	la menotte	6524	het handje	1	I	I	I	no
t03	la menotte	26	14:24:22	11	1	la menotte	3220	het handje	2	I	I	I	no
t05	le genievre	14	11:56:44	17	0	le jenievre	5073	de jeneverbes	2	L	I	I	no
t05	le genievre	11	9:23:20	17	0	la jEnevresse	52578	de jeneverbes	1	L	I	I	no
t05	le genievre	23	10:46:39	17	0	la {.}{.}	15591	de jeneverbes	1	L	I	I	no
t05	le genievre	34	14:47:38	17	0	le jenEvre	6687	de jeneverbes	2	L	I	I	no
t05	le genievre	33	12:26:45	17	0	la genievre	3513	de jeneverbes	1	L	I	I	no
t05	le genievre	2	13:48:02	17	0	la genevi{CAPSLOCK}E{CAPSLOCK}re	8024	de jeneverbes	2	L	I	I	no
t05	le genievre	36	13:25:02	17	0	la jenebres	8507	de jeneverbes	2	L	I	I	no
t05	le genievre	42	14:23:45	17	0	la geniEvre	5337	de jeneverbes	1	L	I	I	no
t05	le genievre	41	9:42:21	17	0	la geniEvre	5872	de jeneverbes	1	L	I	I	no
t05	le genievre	20	16:51:09	17	0	le genEvre	8288	de jeneverbes	2	L	I	I	no
t05	le genievre	32	10:15:52	17	0	la genevrE	10619	de jeneverbes	2	L	I	I	no
t05	le genievre	12	10:15:38	17	0	La genEvre	5293	de jeneverbes	2	L	I	I	no
t05	le genievre	10	16:44:14	17	0	le jambes	2137	de jeneverbes	2	L	I	I	no
t05	le genievre	17	13:48:17	17	0	le genievre	8211	de jeneverbes	1	L	I	I	no
t05	le genievre	13	11:13:58	17	0	la chenevre	5110	de jeneverbes	1	L	I	I	no
t05	le genievre	16	10:16:26	17	1	le geniEvre	6842	de jeneverbes	2	L	I	I	no
t05	le genievre	26	14:24:22	17	0	la genesse	5417	de jeneverbes	2	L	I	I	no
t05	le genievre	18	9:14:27	17	0	le jenEvre	5772	de jeneverbes	2	L	I	I	no
t05	le genievre	3	9:16:47	17	0	la je{.}{.}	32697	de jeneverbes	1	L	I	I	no
t05	le genievre	21	10:18:59	17	0	le genievre	12840	de jeneverbes	1	L	I	I	no
t05	le genievre	15	14:49:18	17	0	le genEvres	15577	de jeneverbes	1	L	I	I	no
t05	le genievre	30	10:46:01	17	0	le genievrE	17642	de jeneverbes	2	L	I	I	no
t05	le genievre	6	11:47:48	17	0	le guineverbe	8894	de jeneverbes	2	L	I	I	no
t05	le genievre	35	12:12:35	17	1	le geniEvre	7129	de jeneverbes	1	L	I	I	no
t05	le genievre	5	13:15:07	17	1	le geniEvre	4554	de jeneverbes	1	L	I	I	no
t05	le genievre	24	11:12:07	17	0	la geniEvre	5231	de jeneverbes	2	L	I	I	no
t05	le genievre	7	13:22:54	17	0	le jenevEvre	24528	de jeneverbes	1	L	I	I	no
t05	le genievre	28	12:43:39	17	0	le geniEvre	32413	de jeneverbes	2	L	I	I	no
t05	le genievre	9	9:19:18	17	0	la geniEvre	5022	de jeneverbes	1	L	I	I	no
t05	le genievre	29	10:16:37	17	0	la gEnievre	6987	de jeneverbes	1	L	I	I	no
t05	le genievre	22	14:14:35	17	0	{?}	2098	de jeneverbes	2	L	I	I	no
t05	le genievre	25	9:23:33	17	0	la jenievre	3677	de jeneverbes	1	L	I	I	no
t05	le genievre	8	12:41:56	17	0	la jenievre	2632	de jeneverbes	2	L	I	I	no
t05	le genievre	27	9:12:11	17	0	la genEvre	23013	de jeneverbes	1	L	I	I	no
t06	le recel	12	10:15:38	15	0	Le recUl	5854	de heling	2	I	I	I	yes
t06	le recel	17	13:48:17	15	0	le recure	26869	de heling	1	I	I	I	yes
t06	le recel	7	13:22:54	15	0	le secoulle	20475	de heling	1	I	I	I	yes
t06	le recel	27	9:12:11	15	1	le recel	5707	de heling	1	I	I	I	yes
t06	le recel	21	10:18:59	15	0	p	3913	de heling	1	I	I	I	yes
t06	le recel	15	14:49:18	15	0	le maneaute	5063	de heling	1	I	I	I	yes
t06	le recel	9	9:19:18	15	0	la relEure	8799	de heling	1	I	I	I	yes
t06	le recel	30	10:46:01	15	0	l{'}escousse	23336	de heling	2	I	I	I	yes
t06	le recel	14	11:56:44	15	1	le recel	3056	de heling	2	I	I	I	yes
t06	le recel	13	11:13:58	15	0	le 	27688	de heling	1	I	I	I	yes
t06	le recel	42	14:23:45	15	1	le recel	3176	de heling	1	I	I	I	yes
t06	le recel	28	12:43:39	15	1	le recel	6194	de heling	2	I	I	I	yes
t06	le recel	23	10:46:39	15	0	la recul	4024	de heling	1	I	I	I	yes
t06	le recel	6	11:47:48	15	1	le recel	4000	de heling	2	I	I	I	yes
t06	le recel	16	10:16:26	15	0	le r	6656	de heling	2	I	I	I	yes
t06	le recel	25	9:23:33	15	1	le recel	1652	de heling	1	I	I	I	yes
t06	le recel	11	9:23:20	15	1	le recel	3365	de heling	1	I	I	I	yes
t06	le recel	8	12:41:56	15	0	le recuil	5947	de heling	2	I	I	I	yes
t06	le recel	33	12:26:45	15	0	le rebond	13208	de heling	1	I	I	I	yes
t06	le recel	24	11:12:07	15	0	la reveille	22851	de heling	2	I	I	I	yes
t06	le recel	41	9:42:21	15	0	le rebous	3291	de heling	1	I	I	I	yes
t06	le recel	32	10:15:52	15	0	le marmout	11697	de heling	2	I	I	I	yes
t06	le recel	22	14:14:35	15	0	{?}	2949	de heling	2	I	I	I	yes
t06	le recel	36	13:25:02	15	1	le recel	2524	de heling	2	I	I	I	yes
t06	le recel	29	10:16:37	15	0		5753	de heling	1	I	I	I	yes
t06	le recel	5	13:15:07	15	0	le rusel	5340	de heling	1	I	I	I	yes
t06	le recel	2	13:48:02	15	0	le recil	10133	de heling	2	I	I	I	yes
t06	le recel	20	16:51:09	15	1	le recel	10118	de heling	2	I	I	I	yes
t06	le recel	34	14:47:38	15	0	le re	18829	de heling	2	I	I	I	yes
t06	le recel	18	9:14:27	15	1	le recel	4364	de heling	2	I	I	I	yes
t06	le recel	10	16:44:14	15	0	la parlet	2916	de heling	2	I	I	I	yes
t06	le recel	35	12:12:35	15	1	le recel	2886	de heling	1	I	I	I	yes
t06	le recel	26	14:24:22	15	0	la payage	33627	de heling	2	I	I	I	yes
t06	le recel	3	9:16:47	15	0	le chamou	9877	de heling	1	I	I	I	yes
t08	la semelle	10	16:44:14	19	0	le refant	2620	de schoenzool	2	L	I	L	no
t08	la semelle	30	10:46:01	19	1	la semelle	6236	de schoenzool	2	L	I	L	no
t08	la semelle	41	9:42:21	19	1	la semelle	1774	de schoenzool	1	L	I	L	no
t08	la semelle	9	9:19:18	19	0	la semaille	3641	de schoenzool	1	L	I	L	no
t08	la semelle	21	10:18:59	19	0	le zole du foot	11748	de schoenzool	1	L	I	L	no
t08	la semelle	36	13:25:02	19	0	la semoule	2795	de schoenzool	2	L	I	L	no
t08	la semelle	32	10:15:52	19	0	la schmelle	16109	de schoenzool	2	L	I	L	no
t08	la semelle	18	9:14:27	19	0	le smelle	4917	de schoenzool	2	L	I	L	no
t08	la semelle	16	10:16:26	19	0	la semoule	2761	de schoenzool	2	L	I	L	no
t08	la semelle	35	12:12:35	19	1	la semelle	2487	de schoenzool	1	L	I	L	no
t08	la semelle	24	11:12:07	19	1	la semelle	4360	de schoenzool	2	L	I	L	no
t08	la semelle	34	14:47:38	19	1	la semelle	10812	de schoenzool	2	L	I	L	no
t08	la semelle	6	11:47:48	19	0	la retron	4458	de schoenzool	2	L	I	L	no
t08	la semelle	2	13:48:02	19	0	la semille	12287	de schoenzool	2	L	I	L	no
t08	la semelle	5	13:15:07	19	0	la m{.}{.}{.}	9305	de schoenzool	1	L	I	L	no
t08	la semelle	11	9:23:20	19	0	le {?}	31520	de schoenzool	1	L	I	L	no
t08	la semelle	12	10:15:38	19	0	La semElle	8140	de schoenzool	2	L	I	L	no
t08	la semelle	17	13:48:17	19	0	le semille	2455	de schoenzool	1	L	I	L	no
t08	la semelle	3	9:16:47	19	0	la sevrette	2779	de schoenzool	1	L	I	L	no
t08	la semelle	23	10:46:39	19	0	la semoule	5539	de schoenzool	1	L	I	L	no
t08	la semelle	29	10:16:37	19	0		3882	de schoenzool	1	L	I	L	no
t08	la semelle	28	12:43:39	19	0	le sevouil	15654	de schoenzool	2	L	I	L	no
t08	la semelle	14	11:56:44	19	0	le semelle	3197	de schoenzool	2	L	I	L	no
t08	la semelle	27	9:12:11	19	0	la sersoulle	64396	de schoenzool	1	L	I	L	no
t08	la semelle	26	14:24:22	19	0	la chausure	26298	de schoenzool	2	L	I	L	no
t08	la semelle	8	12:41:56	19	0	la smoelle	3938	de schoenzool	2	L	I	L	no
t08	la semelle	20	16:51:09	19	1	la semelle	27217	de schoenzool	2	L	I	L	no
t08	la semelle	7	13:22:54	19	0	le secouvre	31399	de schoenzool	1	L	I	L	no
t08	la semelle	42	14:23:45	19	1	la semelle	3048	de schoenzool	1	L	I	L	no
t08	la semelle	15	14:49:18	19	0	le scheauve	7982	de schoenzool	1	L	I	L	no
t08	la semelle	22	14:14:35	19	0	smoulle	5887	de schoenzool	2	L	I	L	no
t08	la semelle	13	11:13:58	19	0	le 	28453	de schoenzool	1	L	I	L	no
t08	la semelle	33	12:26:45	19	0	le semouille	5858	de schoenzool	1	L	I	L	no
t08	la semelle	25	9:23:33	19	1	la semelle	4462	de schoenzool	1	L	I	L	no
t09	le fenouil	33	12:26:45	5	0	la fenouil	2609	de venkel	1	L	I	I	no
t09	le fenouil	2	13:48:02	5	0	el cherille	28227	de venkel	2	L	I	I	no
t09	le fenouil	22	14:14:35	5	0	la fenille	8387	de venkel	2	L	I	I	no
t09	le fenouil	20	16:51:09	5	0	le fenouie	11550	de venkel	2	L	I	I	no
t09	le fenouil	12	10:15:38	5	0		4284	de venkel	2	L	I	I	no
t09	le fenouil	7	13:22:54	5	0	la fenouille	19506	de venkel	1	L	I	I	no
t09	le fenouil	41	9:42:21	5	0	le fequille	4586	de venkel	1	L	I	I	no
t09	le fenouil	34	14:47:38	5	0	le fenile	14709	de venkel	2	L	I	I	no
t09	le fenouil	17	13:48:17	5	0	le venille	4149	de venkel	1	L	I	I	no
t09	le fenouil	42	14:23:45	5	0	le venaille	25167	de venkel	1	L	I	I	no
t09	le fenouil	23	10:46:39	5	0	le fouloire	5556	de venkel	1	L	I	I	no
t09	le fenouil	32	10:15:52	5	0	la veinet	8377	de venkel	2	L	I	I	no
t09	le fenouil	9	9:19:18	5	0	la feriEre	13938	de venkel	1	L	I	I	no
t09	le fenouil	24	11:12:07	5	0	le fenuille	3790	de venkel	2	L	I	I	no
t09	le fenouil	14	11:56:44	5	0	la fenouille	5356	de venkel	2	L	I	I	no
t09	le fenouil	10	16:44:14	5	0	la pulon	4592	de venkel	2	L	I	I	no
t09	le fenouil	27	9:12:11	5	0	la fenouille	17483	de venkel	1	L	I	I	no
t09	le fenouil	25	9:23:33	5	0	le sepeau	10132	de venkel	1	L	I	I	no
t09	le fenouil	35	12:12:35	5	0	la fenouille	6085	de venkel	1	L	I	I	no
t09	le fenouil	26	14:24:22	5	0	la venesse	26357	de venkel	2	L	I	I	no
t09	le fenouil	13	11:13:58	5	0	la fenille	10966	de venkel	1	L	I	I	no
t09	le fenouil	3	9:16:47	5	0	le sem{.}{.}	7591	de venkel	1	L	I	I	no
t09	le fenouil	28	12:43:39	5	0	la fenouille	16470	de venkel	2	L	I	I	no
t09	le fenouil	5	13:15:07	5	0	le fenouille	4296	de venkel	1	L	I	I	no
t09	le fenouil	11	9:23:20	5	0	le souille	12888	de venkel	1	L	I	I	no
t09	le fenouil	18	9:14:27	5	0	le fnuille	5981	de venkel	2	L	I	I	no
t09	le fenouil	6	11:47:48	5	0	la fenokle	7230	de venkel	2	L	I	I	no
t09	le fenouil	30	10:46:01	5	0	la fenouille	4930	de venkel	2	L	I	I	no
t09	le fenouil	36	13:25:02	5	0	le remuse	25713	de venkel	2	L	I	I	no
t09	le fenouil	29	10:16:37	5	0	la fenouille	15368	de venkel	1	L	I	I	no
t09	le fenouil	8	12:41:56	5	0	la venette	4015	de venkel	2	L	I	I	no
t09	le fenouil	15	14:49:18	5	0	le fenouche	5757	de venkel	1	L	I	I	no
t09	le fenouil	16	10:16:26	5	0	le fenouille	3527	de venkel	2	L	I	I	no
t09	le fenouil	21	10:18:59	5	0	La chenElle	9987	de venkel	1	L	I	I	no
t10	le rebond	33	12:26:45	12	1	le rebond	6427	de terugstoot	1	I	I	I	yes
t10	le rebond	9	9:19:18	12	0	la remout	3222	de terugstoot	1	I	I	I	yes
t10	le rebond	22	14:14:35	12	0	{?}	1543	de terugstoot	2	I	I	I	yes
t10	le rebond	17	13:48:17	12	0	le rebon	4687	de terugstoot	1	I	I	I	yes
t10	le rebond	5	13:15:07	12	1	le rebond	2267	de terugstoot	1	I	I	I	yes
t10	le rebond	13	11:13:58	12	1	le rebond	5277	de terugstoot	1	I	I	I	yes
t10	le rebond	20	16:51:09	12	0	le {(}geen idee{)}{)}	19998	de terugstoot	2	I	I	I	yes
t10	le rebond	2	13:48:02	12	0	el retorre	14570	de terugstoot	2	I	I	I	yes
t10	le rebond	32	10:15:52	12	0	le recu	26603	de terugstoot	2	I	I	I	yes
t10	le rebond	3	9:16:47	12	0	le recol	4448	de terugstoot	1	I	I	I	yes
t10	le rebond	18	9:14:27	12	0	le redecul	10525	de terugstoot	2	I	I	I	yes
t10	le rebond	27	9:12:11	12	0	le sebouche	20323	de terugstoot	1	I	I	I	yes
t10	le rebond	41	9:42:21	12	0	le rebous	7160	de terugstoot	1	I	I	I	yes
t10	le rebond	26	14:24:22	12	0	la rebond	8893	de terugstoot	2	I	I	I	yes
t10	le rebond	7	13:22:54	12	1	le rebond	3687	de terugstoot	1	I	I	I	yes
t10	le rebond	35	12:12:35	12	0	la recousse	7454	de terugstoot	1	I	I	I	yes
t10	le rebond	34	14:47:38	12	0	le rebon	5785	de terugstoot	2	I	I	I	yes
t10	le rebond	16	10:16:26	12	0	le re	4600	de terugstoot	2	I	I	I	yes
t10	le rebond	12	10:15:38	12	0	e rebOnte	5556	de terugstoot	2	I	I	I	yes
t10	le rebond	11	9:23:20	12	0	le {?}	27360	de terugstoot	1	I	I	I	yes
t10	le rebond	6	11:47:48	12	1	le rebond	3712	de terugstoot	2	I	I	I	yes
t10	le rebond	14	11:56:44	12	0	le recul	8347	de terugstoot	2	I	I	I	yes
t10	le rebond	36	13:25:02	12	0	la rebond	4509	de terugstoot	2	I	I	I	yes
t10	le rebond	8	12:41:56	12	0	le requit	7226	de terugstoot	2	I	I	I	yes
t10	le rebond	25	9:23:33	12	1	le rebond	3713	de terugstoot	1	I	I	I	yes
t10	le rebond	23	10:46:39	12	0	pas	2267	de terugstoot	1	I	I	I	yes
t10	le rebond	29	10:16:37	12	0	le rEbond	8128	de terugstoot	1	I	I	I	yes
t10	le rebond	30	10:46:01	12	0	la re{.}{.}{.}{.}	23517	de terugstoot	2	I	I	I	yes
t10	le rebond	28	12:43:39	12	0	le rebons	23748	de terugstoot	2	I	I	I	yes
t10	le rebond	10	16:44:14	12	0	le rebont	2313	de terugstoot	2	I	I	I	yes
t10	le rebond	24	11:12:07	12	1	le rebond	4926	de terugstoot	2	I	I	I	yes
t10	le rebond	42	14:23:45	12	1	le rebond	3476	de terugstoot	1	I	I	I	yes
t10	le rebond	15	14:49:18	12	1	le rebond	5938	de terugstoot	1	I	I	I	yes
t10	le rebond	21	10:18:59	12	0	Geen idee	11649	de terugstoot	1	I	I	I	yes
t11	le remous	7	13:22:54	16	0	la sebaille	8358	de zuiging	1	I	I	I	yes
t11	le remous	18	9:14:27	16	0	la redance	19031	de zuiging	2	I	I	I	yes
t11	le remous	16	10:16:26	16	0	le	2767	de zuiging	2	I	I	I	yes
t11	le remous	35	12:12:35	16	0	la remous	2933	de zuiging	1	I	I	I	yes
t11	le remous	32	10:15:52	16	0	le moulet	7156	de zuiging	2	I	I	I	yes
t11	le remous	23	10:46:39	16	0	pas	2317	de zuiging	1	I	I	I	yes
t11	le remous	25	9:23:33	16	0	la remoul	6531	de zuiging	1	I	I	I	yes
t11	le remous	9	9:19:18	16	0	la recol	5471	de zuiging	1	I	I	I	yes
t11	le remous	6	11:47:48	16	0	la trotor	4107	de zuiging	2	I	I	I	yes
t11	le remous	34	14:47:38	16	0	la cous	41649	de zuiging	2	I	I	I	yes
t11	le remous	10	16:44:14	16	0	le tures	3874	de zuiging	2	I	I	I	yes
t11	le remous	42	14:23:45	16	0	le semous	5491	de zuiging	1	I	I	I	yes
t11	le remous	33	12:26:45	16	1	le remous	4784	de zuiging	1	I	I	I	yes
t11	le remous	36	13:25:02	16	0	la	4379	de zuiging	2	I	I	I	yes
t11	le remous	12	10:15:38	16	0	Le recEle	5445	de zuiging	2	I	I	I	yes
t11	le remous	24	11:12:07	16	0	le remoule	9852	de zuiging	2	I	I	I	yes
t11	le remous	20	16:51:09	16	0	geen idee	9779	de zuiging	2	I	I	I	yes
t11	le remous	30	10:46:01	16	0	geen idee	4975	de zuiging	2	I	I	I	yes
t11	le remous	14	11:56:44	16	0	le recel	1799	de zuiging	2	I	I	I	yes
t11	le remous	2	13:48:02	16	0	la semisse	14713	de zuiging	2	I	I	I	yes
t11	le remous	28	12:43:39	16	0	le recel	39340	de zuiging	2	I	I	I	yes
t11	le remous	17	13:48:17	16	0	le remonde	19898	de zuiging	1	I	I	I	yes
t11	le remous	41	9:42:21	16	0	la remouse	2361	de zuiging	1	I	I	I	yes
t11	le remous	27	9:12:11	16	0	la rumouse	13464	de zuiging	1	I	I	I	yes
t11	le remous	15	14:49:18	16	0	le savrage	3006	de zuiging	1	I	I	I	yes
t11	le remous	5	13:15:07	16	0	le per{.}{.}{.}	15097	de zuiging	1	I	I	I	yes
t11	le remous	21	10:18:59	16	0	le {.}{.}{.}	14603	de zuiging	1	I	I	I	yes
t11	le remous	13	11:13:58	16	0	le secouse	11031	de zuiging	1	I	I	I	yes
t11	le remous	22	14:14:35	16	0	{?}	1641	de zuiging	2	I	I	I	yes
t11	le remous	3	9:16:47	16	0	la chouvrette	5115	de zuiging	1	I	I	I	yes
t11	le remous	29	10:16:37	16	0		8624	de zuiging	1	I	I	I	yes
t11	le remous	8	12:41:56	16	0		1006	de zuiging	2	I	I	I	yes
t11	le remous	11	9:23:20	16	0	le savrage	9105	de zuiging	1	I	I	I	yes
t11	le remous	26	14:24:22	16	0	la rechute	21579	de zuiging	2	I	I	I	yes
t12	le requin	12	10:15:38	8	0	Le Requin	6167	de haai	2	I	I	I	yes
t12	le requin	2	13:48:02	8	1	le requin	5447	de haai	2	I	I	I	yes
t12	le requin	7	13:22:54	8	0	la menoui	34375	de haai	1	I	I	I	yes
t12	le requin	11	9:23:20	8	1	le requin	7932	de haai	1	I	I	I	yes
t12	le requin	41	9:42:21	8	1	le requin	3235	de haai	1	I	I	I	yes
t12	le requin	42	14:23:45	8	1	le requin	3781	de haai	1	I	I	I	yes
t12	le requin	3	9:16:47	8	1	le requin	7015	de haai	1	I	I	I	yes
t12	le requin	27	9:12:11	8	0	le requin	11087	de haai	1	I	I	I	yes
t12	le requin	13	11:13:58	8	0	le requine	11772	de haai	1	I	I	I	yes
t12	le requin	28	12:43:39	8	0	le recul	15680	de haai	2	I	I	I	yes
t12	le requin	22	14:14:35	8	0	{?}	2236	de haai	2	I	I	I	yes
t12	le requin	33	12:26:45	8	0	la requin	2375	de haai	1	I	I	I	yes
t12	le requin	8	12:41:56	8	0	 la recuit	12340	de haai	2	I	I	I	yes
t12	le requin	35	12:12:35	8	1	le requin	3483	de haai	1	I	I	I	yes
t12	le requin	30	10:46:01	8	1	le requin	16175	de haai	2	I	I	I	yes
t12	le requin	34	14:47:38	8	0	la 	18155	de haai	2	I	I	I	yes
t12	le requin	18	9:14:27	8	1	le requin	3884	de haai	2	I	I	I	yes
t12	le requin	24	11:12:07	8	1	le requin	2986	de haai	2	I	I	I	yes
t12	le requin	14	11:56:44	8	1	le requin	1826	de haai	2	I	I	I	yes
t12	le requin	25	9:23:33	8	0	le sequin	2516	de haai	1	I	I	I	yes
t12	le requin	15	14:49:18	8	0	la requin	8045	de haai	1	I	I	I	yes
t12	le requin	9	9:19:18	8	0	la requil	4319	de haai	1	I	I	I	yes
t12	le requin	5	13:15:07	8	1	le requin	2919	de haai	1	I	I	I	yes
t12	le requin	29	10:16:37	8	1	le requin	2842	de haai	1	I	I	I	yes
t12	le requin	20	16:51:09	8	1	le requin	2899	de haai	2	I	I	I	yes
t12	le requin	10	16:44:14	8	0	le refant	2713	de haai	2	I	I	I	yes
t12	le requin	16	10:16:26	8	1	le requin	2212	de haai	2	I	I	I	yes
t12	le requin	36	13:25:02	8	1	le requin	3296	de haai	2	I	I	I	yes
t12	le requin	17	13:48:17	8	1	le requin	3630	de haai	1	I	I	I	yes
t12	le requin	23	10:46:39	8	1	le requin	4277	de haai	1	I	I	I	yes
t12	le requin	26	14:24:22	8	1	le requin	1804	de haai	2	I	I	I	yes
t12	le requin	6	11:47:48	8	0	la riquot	10462	de haai	2	I	I	I	yes
t12	le requin	21	10:18:59	8	0	Le requin	10294	de haai	1	I	I	I	yes
t12	le requin	32	10:15:52	8	0	le recul	16362	de haai	2	I	I	I	yes
t13	le sevrage	41	9:42:21	18	0	la revage	18282	het onttrekken	1	L	I	L	no
t13	le sevrage	28	12:43:39	18	0	le savrage	5247	het onttrekken	2	L	I	L	no
t13	le sevrage	20	16:51:09	18	0	le	39578	het onttrekken	2	L	I	L	no
t13	le sevrage	2	13:48:02	18	0	el redistart	21814	het onttrekken	2	L	I	L	no
t13	le sevrage	25	9:23:33	18	0	le rebond	8746	het onttrekken	1	L	I	L	no
t13	le sevrage	35	12:12:35	18	0	la secousse	3581	het onttrekken	1	L	I	L	no
t13	le sevrage	24	11:12:07	18	1	le sevrage	5604	het onttrekken	2	L	I	L	no
t13	le sevrage	16	10:16:26	18	0	le	1864	het onttrekken	2	L	I	L	no
t13	le sevrage	10	16:44:14	18	0	le retrondt	2877	het onttrekken	2	L	I	L	no
t13	le sevrage	13	11:13:58	18	0	la 	28994	het onttrekken	1	L	I	L	no
t13	le sevrage	30	10:46:01	18	0		15789	het onttrekken	2	L	I	L	no
t13	le sevrage	7	13:22:54	18	0	la senoulle	16342	het onttrekken	1	L	I	L	no
t13	le sevrage	17	13:48:17	18	0	la sevrage	3287	het onttrekken	1	L	I	L	no
t13	le sevrage	22	14:14:35	18	0	{?}	5255	het onttrekken	2	L	I	L	no
t13	le sevrage	9	9:19:18	18	0	la rebond	4749	het onttrekken	1	L	I	L	no
t13	le sevrage	11	9:23:20	18	1	le sevrage	12759	het onttrekken	1	L	I	L	no
t13	le sevrage	42	14:23:45	18	0	le recus	14093	het onttrekken	1	L	I	L	no
t13	le sevrage	21	10:18:59	18	0	p	9970	het onttrekken	1	L	I	L	no
t13	le sevrage	5	13:15:07	18	0	la {.}{.}{.}	10069	het onttrekken	1	L	I	L	no
t13	le sevrage	32	10:15:52	18	0	la reculle	17607	het onttrekken	2	L	I	L	no
t13	le sevrage	12	10:15:38	18	0	La secUse	11555	het onttrekken	2	L	I	L	no
t13	le sevrage	26	14:24:22	18	0	l{'}obdain	13937	het onttrekken	2	L	I	L	no
t13	le sevrage	23	10:46:39	18	0	le savrage	9345	het onttrekken	1	L	I	L	no
t13	le sevrage	27	9:12:11	18	0	le sequoille	20425	het onttrekken	1	L	I	L	no
t13	le sevrage	3	9:16:47	18	0	la sevrette	4268	het onttrekken	1	L	I	L	no
t13	le sevrage	6	11:47:48	18	0	le rebond	3475	het onttrekken	2	L	I	L	no
t13	le sevrage	33	12:26:45	18	0	la secousse	15321	het onttrekken	1	L	I	L	no
t13	le sevrage	15	14:49:18	18	0	Le denie	10431	het onttrekken	1	L	I	L	no
t13	le sevrage	34	14:47:38	18	0	le chenille	13572	het onttrekken	2	L	I	L	no
t13	le sevrage	36	13:25:02	18	0	la	4067	het onttrekken	2	L	I	L	no
t13	le sevrage	29	10:16:37	18	0	la secouse	4594	het onttrekken	1	L	I	L	no
t13	le sevrage	8	12:41:56	18	0	la repruit	7968	het onttrekken	2	L	I	L	no
t13	le sevrage	18	9:14:27	18	0	le dispare	7446	het onttrekken	2	L	I	L	no
t13	le sevrage	14	11:56:44	18	1	le sevrage	2720	het onttrekken	2	L	I	L	no
t14	la chenille	28	12:43:39	10	1	la chenille	5219	de rups	2	L	I	L	no
t14	la chenille	14	11:56:44	10	0	le chenille	3748	de rups	2	L	I	L	no
t14	la chenille	7	13:22:54	10	1	la chenille	12020	de rups	1	L	I	L	no
t14	la chenille	13	11:13:58	10	0	le 	29943	de rups	1	L	I	L	no
t14	la chenille	10	16:44:14	10	0	la realon	3373	de rups	2	L	I	L	no
t14	la chenille	32	10:15:52	10	1	la chenille	10581	de rups	2	L	I	L	no
t14	la chenille	35	12:12:35	10	0	le chenille	7420	de rups	1	L	I	L	no
t14	la chenille	22	14:14:35	10	0	{?}	1611	de rups	2	L	I	L	no
t14	la chenille	34	14:47:38	10	0	la 	25968	de rups	2	L	I	L	no
t14	la chenille	3	9:16:47	10	0	le chenille	2608	de rups	1	L	I	L	no
t14	la chenille	30	10:46:01	10	0	la reliere	4596	de rups	2	L	I	L	no
t14	la chenille	27	9:12:11	10	0	la chevrelle	29035	de rups	1	L	I	L	no
t14	la chenille	11	9:23:20	10	0	le chinille	23757	de rups	1	L	I	L	no
t14	la chenille	18	9:14:27	10	1	la chenille	3756	de rups	2	L	I	L	no
t14	la chenille	23	10:46:39	10	0	pas	1258	de rups	1	L	I	L	no
t14	la chenille	17	13:48:17	10	0	le cien	18586	de rups	1	L	I	L	no
t14	la chenille	16	10:16:26	10	0	le chenille	2078	de rups	2	L	I	L	no
t14	la chenille	2	13:48:02	10	0	la chemille	12766	de rups	2	L	I	L	no
t14	la chenille	12	10:15:38	10	0	Le chenIn	6897	de rups	2	L	I	L	no
t14	la chenille	42	14:23:45	10	1	la chenille	6963	de rups	1	L	I	L	no
t14	la chenille	20	16:51:09	10	0	le chenille	5169	de rups	2	L	I	L	no
t14	la chenille	33	12:26:45	10	0	la chenille	8131	de rups	1	L	I	L	no
t14	la chenille	5	13:15:07	10	0	la p{.}{.}{.}	8693	de rups	1	L	I	L	no
t14	la chenille	21	10:18:59	10	0	La chenelle	12911	de rups	1	L	I	L	no
t14	la chenille	15	14:49:18	10	0	le chennile	6142	de rups	1	L	I	L	no
t14	la chenille	36	13:25:02	10	0	le chenil	6117	de rups	2	L	I	L	no
t14	la chenille	25	9:23:33	10	0	la senille	10274	de rups	1	L	I	L	no
t14	la chenille	6	11:47:48	10	0	le plie	7371	de rups	2	L	I	L	no
t14	la chenille	9	9:19:18	10	1	la chenille	2830	de rups	1	L	I	L	no
t14	la chenille	24	11:12:07	10	1	la chenille	10049	de rups	2	L	I	L	no
t14	la chenille	26	14:24:22	10	0	la refute	7562	de rups	2	L	I	L	no
t14	la chenille	29	10:16:37	10	0	le chenille	15385	de rups	1	L	I	L	no
t14	la chenille	8	12:41:56	10	0	le 	6249	de rups	2	L	I	L	no
t14	la chenille	41	9:42:21	10	1	la chenille	5895	de rups	1	L	I	L	no
t15	la pelouse	24	11:12:07	4	0	la pelouche	2544	het gazon	2	L	L	L	no
t15	la pelouse	17	13:48:17	4	0	le pelouche	8930	het gazon	1	L	L	L	no
t15	la pelouse	16	10:16:26	4	1	la pelouse	2283	het gazon	2	L	L	L	no
t15	la pelouse	22	14:14:35	4	0	la pluche	6986	het gazon	2	L	L	L	no
t15	la pelouse	11	9:23:20	4	0	le patron	28724	het gazon	1	L	L	L	no
t15	la pelouse	15	14:49:18	4	0	le geseau	14039	het gazon	1	L	L	L	no
t15	la pelouse	18	9:14:27	4	0	la bedeau	7855	het gazon	2	L	L	L	no
t15	la pelouse	2	13:48:02	4	0	la pelaise	26652	het gazon	2	L	L	L	no
t15	la pelouse	9	9:19:18	4	0	la pelouze	9903	het gazon	1	L	L	L	no
t15	la pelouse	8	12:41:56	4	0	la pluise	9549	het gazon	2	L	L	L	no
t15	la pelouse	34	14:47:38	4	0	la peluche	9046	het gazon	2	L	L	L	no
t15	la pelouse	12	10:15:38	4	0	{.}	7953	het gazon	2	L	L	L	no
t15	la pelouse	23	10:46:39	4	0	pas	1295	het gazon	1	L	L	L	no
t15	la pelouse	25	9:23:33	4	0	le seluche	3477	het gazon	1	L	L	L	no
t15	la pelouse	42	14:23:45	4	0	la pelouze	6340	het gazon	1	L	L	L	no
t15	la pelouse	35	12:12:35	4	0	la pelousse	3579	het gazon	1	L	L	L	no
t15	la pelouse	27	9:12:11	4	0	le peluch	51398	het gazon	1	L	L	L	no
t15	la pelouse	26	14:24:22	4	1	la pelouse	2361	het gazon	2	L	L	L	no
t15	la pelouse	33	12:26:45	4	0	la plaison	28460	het gazon	1	L	L	L	no
t15	la pelouse	10	16:44:14	4	0	le gardon	3740	het gazon	2	L	L	L	no
t15	la pelouse	32	10:15:52	4	0	la plouche	10141	het gazon	2	L	L	L	no
t15	la pelouse	5	13:15:07	4	0	la panouche	4018	het gazon	1	L	L	L	no
t15	la pelouse	41	9:42:21	4	1	la pelouse	3044	het gazon	1	L	L	L	no
t15	la pelouse	21	10:18:59	4	0	La chenelle	12541	het gazon	1	L	L	L	no
t15	la pelouse	3	9:16:47	4	0	le pelouze	7766	het gazon	1	L	L	L	no
t15	la pelouse	7	13:22:54	4	0	la benouche	19263	het gazon	1	L	L	L	no
t15	la pelouse	29	10:16:37	4	0	la 	10882	het gazon	1	L	L	L	no
t15	la pelouse	20	16:51:09	4	0	la pluze	9757	het gazon	2	L	L	L	no
t15	la pelouse	30	10:46:01	4	0	la chenile	8952	het gazon	2	L	L	L	no
t15	la pelouse	28	12:43:39	4	0	la pelan	45692	het gazon	2	L	L	L	no
t15	la pelouse	13	11:13:58	4	1	la pelouse	13940	het gazon	1	L	L	L	no
t15	la pelouse	36	13:25:02	4	0	la pluse	18602	het gazon	2	L	L	L	no
t15	la pelouse	14	11:56:44	4	1	la pelouse	5594	het gazon	2	L	L	L	no
t15	la pelouse	6	11:47:48	4	0	la pizou	10467	het gazon	2	L	L	L	no
t16	la peluche	5	13:15:07	2	1	la peluche	3831	het pluisje	1	L	L	L	no
t16	la peluche	7	13:22:54	2	1	la peluche	20849	het pluisje	1	L	L	L	no
t16	la peluche	14	11:56:44	2	1	la peluche	8662	het pluisje	2	L	L	L	no
t16	la peluche	6	11:47:48	2	0	la plouis	3768	het pluisje	2	L	L	L	no
t16	la peluche	17	13:48:17	2	0	le pluche	5732	het pluisje	1	L	L	L	no
t16	la peluche	30	10:46:01	2	0	la pluiche	10885	het pluisje	2	L	L	L	no
t16	la peluche	36	13:25:02	2	0	la pluche	17386	het pluisje	2	L	L	L	no
t16	la peluche	29	10:16:37	2	0	la pluche	3462	het pluisje	1	L	L	L	no
t16	la peluche	2	13:48:02	2	0	el pelouse	13042	het pluisje	2	L	L	L	no
t16	la peluche	34	14:47:38	2	0	la pluche	3053	het pluisje	2	L	L	L	no
t16	la peluche	32	10:15:52	2	0	la pluiche	3945	het pluisje	2	L	L	L	no
t16	la peluche	9	9:19:18	2	0	la pluche	3728	het pluisje	1	L	L	L	no
t16	la peluche	42	14:23:45	2	0	la pelouche	5146	het pluisje	1	L	L	L	no
t16	la peluche	18	9:14:27	2	0	la pluche	6488	het pluisje	2	L	L	L	no
t16	la peluche	3	9:16:47	2	0	la pelouche	4306	het pluisje	1	L	L	L	no
t16	la peluche	13	11:13:58	2	1	la peluche	6957	het pluisje	1	L	L	L	no
t16	la peluche	27	9:12:11	2	0	 peluche	6794	het pluisje	1	L	L	L	no
t16	la peluche	35	12:12:35	2	1	la peluche	4760	het pluisje	1	L	L	L	no
t16	la peluche	24	11:12:07	2	0	la pluche	5540	het pluisje	2	L	L	L	no
t16	la peluche	41	9:42:21	2	0	la puluche	3863	het pluisje	1	L	L	L	no
t16	la peluche	12	10:15:38	2	0	 la peluche	5689	het pluisje	2	L	L	L	no
t16	la peluche	10	16:44:14	2	0	la plouche	2238	het pluisje	2	L	L	L	no
t16	la peluche	22	14:14:35	2	0	 peluche	4279	het pluisje	2	L	L	L	no
t16	la peluche	26	14:24:22	2	0	la pluche	8429	het pluisje	2	L	L	L	no
t16	la peluche	23	10:46:39	2	0	le puluiche	12071	het pluisje	1	L	L	L	no
t16	la peluche	8	12:41:56	2	0	la pluische	5124	het pluisje	2	L	L	L	no
t16	la peluche	33	12:26:45	2	1	la peluche	1610	het pluisje	1	L	L	L	no
t16	la peluche	25	9:23:33	2	1	la peluche	2777	het pluisje	1	L	L	L	no
t16	la peluche	20	16:51:09	2	0	la plush	27608	het pluisje	2	L	L	L	no
t16	la peluche	21	10:18:59	2	0	La pluche	7238	het pluisje	1	L	L	L	no
t16	la peluche	28	12:43:39	2	0	la peluche	25005	het pluisje	2	L	L	L	no
t16	la peluche	16	10:16:26	2	0	la pelouche	7092	het pluisje	2	L	L	L	no
t16	la peluche	11	9:23:20	2	1	la peluche	12450	het pluisje	1	L	L	L	no
t16	la peluche	15	14:49:18	2	0	le pluiche	7183	het pluisje	1	L	L	L	no
t17	la semoule	25	9:23:33	9	1	la semoule	2028	de griesmeel	1	L	I	L	no
t17	la semoule	32	10:15:52	9	0	la menouche	15427	de griesmeel	2	L	I	L	no
t17	la semoule	10	16:44:14	9	0	le pulette	4470	de griesmeel	2	L	I	L	no
t17	la semoule	13	11:13:58	9	0	la 	19252	de griesmeel	1	L	I	L	no
t17	la semoule	15	14:49:18	9	0	le moneua	9740	de griesmeel	1	L	I	L	no
t17	la semoule	18	9:14:27	9	0	la smoulle	5611	de griesmeel	2	L	I	L	no
t17	la semoule	5	13:15:07	9	0	la p{.}{.}{.}	9843	de griesmeel	1	L	I	L	no
t17	la semoule	17	13:48:17	9	0	le semoulle	5228	de griesmeel	1	L	I	L	no
t17	la semoule	21	10:18:59	9	0	Le griesmail	9944	de griesmeel	1	L	I	L	no
t17	la semoule	9	9:19:18	9	0	la semaille	8331	de griesmeel	1	L	I	L	no
t17	la semoule	14	11:56:44	9	0	la semoulle	5019	de griesmeel	2	L	I	L	no
t17	la semoule	34	14:47:38	9	0	la semoulle	4299	de griesmeel	2	L	I	L	no
t17	la semoule	20	16:51:09	9	0	la semouile	8919	de griesmeel	2	L	I	L	no
t17	la semoule	22	14:14:35	9	0	la smoulle	4068	de griesmeel	2	L	I	L	no
t17	la semoule	8	12:41:56	9	0	la smoele	3974	de griesmeel	2	L	I	L	no
t17	la semoule	12	10:15:38	9	0	le sEmoele	7825	de griesmeel	2	L	I	L	no
t17	la semoule	33	12:26:45	9	0	le semoulle	3210	de griesmeel	1	L	I	L	no
t17	la semoule	29	10:16:37	9	0	la se	13850	de griesmeel	1	L	I	L	no
t17	la semoule	36	13:25:02	9	0	la 	12930	de griesmeel	2	L	I	L	no
t17	la semoule	30	10:46:01	9	0	la semoulle	2902	de griesmeel	2	L	I	L	no
t17	la semoule	26	14:24:22	9	0	la griesse	2333	de griesmeel	2	L	I	L	no
t17	la semoule	42	14:23:45	9	0	la semoulle	4943	de griesmeel	1	L	I	L	no
t17	la semoule	7	13:22:54	9	0	la grevey	13496	de griesmeel	1	L	I	L	no
t17	la semoule	28	12:43:39	9	0	le senouille	13612	de griesmeel	2	L	I	L	no
t17	la semoule	23	10:46:39	9	1	la semoule	4241	de griesmeel	1	L	I	L	no
t17	la semoule	24	11:12:07	9	0	la semoulle	2655	de griesmeel	2	L	I	L	no
t17	la semoule	35	12:12:35	9	1	la semoule	2985	de griesmeel	1	L	I	L	no
t17	la semoule	6	11:47:48	9	0	le schmal	5600	de griesmeel	2	L	I	L	no
t17	la semoule	2	13:48:02	9	0	la gerisse	15775	de griesmeel	2	L	I	L	no
t17	la semoule	11	9:23:20	9	0	le souville	13698	de griesmeel	1	L	I	L	no
t17	la semoule	27	9:12:11	9	0	la semoulle	20715	de griesmeel	1	L	I	L	no
t17	la semoule	16	10:16:26	9	0	le 	2352	de griesmeel	2	L	I	L	no
t17	la semoule	3	9:16:47	9	0	la semoulle	3635	de griesmeel	1	L	I	L	no
t17	la semoule	41	9:42:21	9	0	la selouse	1874	de griesmeel	1	L	I	L	no
t18	le reflet	2	13:48:02	7	0	le refleg	31138	de reflex	2	I	I	I	yes
t18	le reflet	25	9:23:33	7	1	le reflet	7004	de reflex	1	I	I	I	yes
t18	le reflet	7	13:22:54	7	1	le reflet	18418	de reflex	1	I	I	I	yes
t18	le reflet	42	14:23:45	7	1	le reflet	8088	de reflex	1	I	I	I	yes
t18	le reflet	22	14:14:35	7	0	le refleqe	10737	de reflex	2	I	I	I	yes
t18	le reflet	17	13:48:17	7	0	la reflet	9960	de reflex	1	I	I	I	yes
t18	le reflet	14	11:56:44	7	1	le reflet	17846	de reflex	2	I	I	I	yes
t18	le reflet	12	10:15:38	7	0	le reflE	6281	de reflex	2	I	I	I	yes
t18	le reflet	23	10:46:39	7	0	le reflec	6699	de reflex	1	I	I	I	yes
t18	le reflet	41	9:42:21	7	0	le reflex	2220	de reflex	1	I	I	I	yes
t18	le reflet	16	10:16:26	7	1	le reflet	1877	de reflex	2	I	I	I	yes
t18	le reflet	21	10:18:59	7	0	Le reflex	4151	de reflex	1	I	I	I	yes
t18	le reflet	34	14:47:38	7	1	le reflet	9611	de reflex	2	I	I	I	yes
t18	le reflet	28	12:43:39	7	1	le reflet	4040	de reflex	2	I	I	I	yes
t18	le reflet	8	12:41:56	7	0	le revette	5211	de reflex	2	I	I	I	yes
t18	le reflet	13	11:13:58	7	1	le reflet	5227	de reflex	1	I	I	I	yes
t18	le reflet	27	9:12:11	7	0	le reflex	14417	de reflex	1	I	I	I	yes
t18	le reflet	6	11:47:48	7	0	 reflEt	6530	de reflex	2	I	I	I	yes
t18	le reflet	36	13:25:02	7	1	le reflet	6669	de reflex	2	I	I	I	yes
t18	le reflet	3	9:16:47	7	0	la reflect	11388	de reflex	1	I	I	I	yes
t18	le reflet	30	10:46:01	7	1	le reflet	3648	de reflex	2	I	I	I	yes
t18	le reflet	5	13:15:07	7	1	le reflet	2167	de reflex	1	I	I	I	yes
t18	le reflet	11	9:23:20	7	1	le reflet	16367	de reflex	1	I	I	I	yes
t18	le reflet	9	9:19:18	7	0	la reflet	1613	de reflex	1	I	I	I	yes
t18	le reflet	10	16:44:14	7	1	le reflet	2774	de reflex	2	I	I	I	yes
t18	le reflet	20	16:51:09	7	0	le regle	15898	de reflex	2	I	I	I	yes
t18	le reflet	29	10:16:37	7	1	le reflet	9787	de reflex	1	I	I	I	yes
t18	le reflet	15	14:49:18	7	1	le reflet	9596	de reflex	1	I	I	I	yes
t18	le reflet	26	14:24:22	7	0	la reflEt	5344	de reflex	2	I	I	I	yes
t18	le reflet	35	12:12:35	7	1	le reflet	7127	de reflex	1	I	I	I	yes
t18	le reflet	24	11:12:07	7	0	la reflet	2121	de reflex	2	I	I	I	yes
t18	le reflet	18	9:14:27	7	0	le relex	6978	de reflex	2	I	I	I	yes
t18	le reflet	32	10:15:52	7	0	le reflex	9973	de reflex	2	I	I	I	yes
t18	le reflet	33	12:26:45	7	1	le reflet	1470	de reflex	1	I	I	I	yes
t19	le chenil	9	9:19:18	13	1	le chenil	3063	de kennel	1	L	I	L	no
t19	le chenil	35	12:12:35	13	1	le chenil	4004	de kennel	1	L	I	L	no
t19	le chenil	18	9:14:27	13	0	le chenill	5672	de kennel	2	L	I	L	no
t19	le chenil	28	12:43:39	13	0	la chenille	32635	de kennel	2	L	I	L	no
t19	le chenil	13	11:13:58	13	0	la chenille	5475	de kennel	1	L	I	L	no
t19	le chenil	26	14:24:22	13	0	la chenelle	2714	de kennel	2	L	I	L	no
t19	le chenil	5	13:15:07	13	0	le chenal	5076	de kennel	1	L	I	L	no
t19	le chenil	7	13:22:54	13	1	le chenil	5357	de kennel	1	L	I	L	no
t19	le chenil	27	9:12:11	13	0	le chenel	6995	de kennel	1	L	I	L	no
t19	le chenil	8	12:41:56	13	0	la chenelle	2450	de kennel	2	L	I	L	no
t19	le chenil	17	13:48:17	13	0	le chenille	3141	de kennel	1	L	I	L	no
t19	le chenil	30	10:46:01	13	0	la chenelle	4397	de kennel	2	L	I	L	no
t19	le chenil	33	12:26:45	13	1	le chenil	1240	de kennel	1	L	I	L	no
t19	le chenil	24	11:12:07	13	1	le chenil	6927	de kennel	2	L	I	L	no
t19	le chenil	25	9:23:33	13	0	le chennel	3009	de kennel	1	L	I	L	no
t19	le chenil	22	14:14:35	13	0	chenille	2604	de kennel	2	L	I	L	no
t19	le chenil	12	10:15:38	13	0	Le chennIlle	6295	de kennel	2	L	I	L	no
t19	le chenil	29	10:16:37	13	0	la chenille	5523	de kennel	1	L	I	L	no
t19	le chenil	41	9:42:21	13	1	le chenil	6458	de kennel	1	L	I	L	no
t19	le chenil	16	10:16:26	13	0	la chenille	4164	de kennel	2	L	I	L	no
t19	le chenil	11	9:23:20	13	0	le chenelle	23218	de kennel	1	L	I	L	no
t19	le chenil	34	14:47:38	13	0	la chenille	7706	de kennel	2	L	I	L	no
t19	le chenil	36	13:25:02	13	0	la chenille	2458	de kennel	2	L	I	L	no
t19	le chenil	14	11:56:44	13	1	le chenil	4141	de kennel	2	L	I	L	no
t19	le chenil	10	16:44:14	13	0	la pullet	2278	de kennel	2	L	I	L	no
t19	le chenil	15	14:49:18	13	0	le chennil	7486	de kennel	1	L	I	L	no
t19	le chenil	32	10:15:52	13	1	le chenil	5839	de kennel	2	L	I	L	no
t19	le chenil	23	10:46:39	13	0	le chenel	4856	de kennel	1	L	I	L	no
t19	le chenil	42	14:23:45	13	1	le chenil	2315	de kennel	1	L	I	L	no
t19	le chenil	3	9:16:47	13	0	le chennel	11558	de kennel	1	L	I	L	no
t19	le chenil	21	10:18:59	13	0	p	10243	de kennel	1	L	I	L	no
t19	le chenil	20	16:51:09	13	1	le chenil	12179	de kennel	2	L	I	L	no
t19	le chenil	6	11:47:48	13	0	le chiennE	7352	de kennel	2	L	I	L	no
t19	le chenil	2	13:48:02	13	0	el chennille	8794	de kennel	2	L	I	L	no
t20	le meneau	12	10:15:38	23	0	le moche	7008	de paal	2	I	I	I	no
t20	le meneau	9	9:19:18	23	0	le moulliEre	10949	de paal	1	I	I	I	no
t20	le meneau	25	9:23:33	23	0	le sepeau	4743	de paal	1	I	I	I	no
t20	le meneau	13	11:13:58	23	0	le 	21977	de paal	1	I	I	I	no
t20	le meneau	24	11:12:07	23	0	le menoux	9009	de paal	2	I	I	I	no
t20	le meneau	23	10:46:39	23	0	pas	4838	de paal	1	I	I	I	no
t20	le meneau	33	12:26:45	23	0	le menot	6601	de paal	1	I	I	I	no
t20	le meneau	6	11:47:48	23	0	la maiman	5903	de paal	2	I	I	I	no
t20	le meneau	7	13:22:54	23	0	le menau	16496	de paal	1	I	I	I	no
t20	le meneau	28	12:43:39	23	0	le menot	8827	de paal	2	I	I	I	no
t20	le meneau	32	10:15:52	23	0	le menoux	3485	de paal	2	I	I	I	no
t20	le meneau	20	16:51:09	23	1	le meneau	3592	de paal	2	I	I	I	no
t20	le meneau	18	9:14:27	23	0	le pandeau	5952	de paal	2	I	I	I	no
t20	le meneau	14	11:56:44	23	0	la meneau	8005	de paal	2	I	I	I	no
t20	le meneau	10	16:44:14	23	0	le parte	1659	de paal	2	I	I	I	no
t20	le meneau	2	13:48:02	23	0	la menuae	31396	de paal	2	I	I	I	no
t20	le meneau	8	12:41:56	23	0	la monquit	5614	de paal	2	I	I	I	no
t20	le meneau	17	13:48:17	23	1	le meneau	5561	de paal	1	I	I	I	no
t20	le meneau	26	14:24:22	23	0	le bodain	2491	de paal	2	I	I	I	no
t20	le meneau	22	14:14:35	23	0	la mer	5295	de paal	2	I	I	I	no
t20	le meneau	3	9:16:47	23	0	le menou	2848	de paal	1	I	I	I	no
t20	le meneau	42	14:23:45	23	1	le meneau	6514	de paal	1	I	I	I	no
t20	le meneau	35	12:12:35	23	1	le meneau	4499	de paal	1	I	I	I	no
t20	le meneau	34	14:47:38	23	0		23001	de paal	2	I	I	I	no
t20	le meneau	29	10:16:37	23	1	le meneau	2823	de paal	1	I	I	I	no
t20	le meneau	36	13:25:02	23	0	la meneau	12860	de paal	2	I	I	I	no
t20	le meneau	41	9:42:21	23	0	le menot	1291	de paal	1	I	I	I	no
t20	le meneau	30	10:46:01	23	0	le manteau	16477	de paal	2	I	I	I	no
t20	le meneau	27	9:12:11	23	0	le menous	18834	de paal	1	I	I	I	no
t20	le meneau	11	9:23:20	23	0	la mouvesse	11741	de paal	1	I	I	I	no
t20	le meneau	15	14:49:18	23	0	le maneau	7369	de paal	1	I	I	I	no
t20	le meneau	16	10:16:26	23	1	le meneau	5005	de paal	2	I	I	I	no
t20	le meneau	21	10:18:59	23	0	Geen idee	6407	de paal	1	I	I	I	no
t20	le meneau	5	13:15:07	23	0	le menou	3460	de paal	1	I	I	I	no
t21	le recul	36	13:25:02	3	1	le recul	5511	de teruggang	2	I	I	I	yes
t21	le recul	23	10:46:39	3	1	le recul	5702	de teruggang	1	I	I	I	yes
t21	le recul	29	10:16:37	3	0	le recule	10212	de teruggang	1	I	I	I	yes
t21	le recul	27	9:12:11	3	0	le servrage	13883	de teruggang	1	I	I	I	yes
t21	le recul	17	13:48:17	3	0	le recuz	14197	de teruggang	1	I	I	I	yes
t21	le recul	28	12:43:39	3	0	le recail	29185	de teruggang	2	I	I	I	yes
t21	le recul	34	14:47:38	3	0	le rechan	21085	de teruggang	2	I	I	I	yes
t21	le recul	41	9:42:21	3	0	le recuin	6384	de teruggang	1	I	I	I	yes
t21	le recul	18	9:14:27	3	0	le recours	7566	de teruggang	2	I	I	I	yes
t21	le recul	30	10:46:01	3	0	la rediquile	22128	de teruggang	2	I	I	I	yes
t21	le recul	2	13:48:02	3	0	el rebond	9051	de teruggang	2	I	I	I	yes
t21	le recul	26	14:24:22	3	0	la rebond	11268	de teruggang	2	I	I	I	yes
t21	le recul	15	14:49:18	3	0	le rebond	8816	de teruggang	1	I	I	I	yes
t21	le recul	8	12:41:56	3	0	le recruit	4328	de teruggang	2	I	I	I	yes
t21	le recul	12	10:15:38	3	0	le rebonte	9935	de teruggang	2	I	I	I	yes
t21	le recul	6	11:47:48	3	0	le rebond	3452	de teruggang	2	I	I	I	yes
t21	le recul	14	11:56:44	3	0	le rebond	2100	de teruggang	2	I	I	I	yes
t21	le recul	22	14:14:35	3	0	{?}	2157	de teruggang	2	I	I	I	yes
t21	le recul	7	13:22:54	3	0	le rebond	5764	de teruggang	1	I	I	I	yes
t21	le recul	42	14:23:45	3	0	le sevrage	9037	de teruggang	1	I	I	I	yes
t21	le recul	24	11:12:07	3	0	la recul	1816	de teruggang	2	I	I	I	yes
t21	le recul	10	16:44:14	3	0	le rebound	2519	de teruggang	2	I	I	I	yes
t21	le recul	33	12:26:45	3	1	le recul	4961	de teruggang	1	I	I	I	yes
t21	le recul	21	10:18:59	3	0	Geen idee	10533	de teruggang	1	I	I	I	yes
t21	le recul	5	13:15:07	3	0	le rebond	4822	de teruggang	1	I	I	I	yes
t21	le recul	3	9:16:47	3	0	le recule	3254	de teruggang	1	I	I	I	yes
t21	le recul	9	9:19:18	3	0	la recul	8765	de teruggang	1	I	I	I	yes
t21	le recul	35	12:12:35	3	1	le recul	6035	de teruggang	1	I	I	I	yes
t21	le recul	20	16:51:09	3	1	le recul	4310	de teruggang	2	I	I	I	yes
t21	le recul	13	11:13:58	3	0	le rebond	9296	de teruggang	1	I	I	I	yes
t21	le recul	25	9:23:33	3	0	le poivre	5212	de teruggang	1	I	I	I	yes
t21	le recul	16	10:16:26	3	1	le recul	1520	de teruggang	2	I	I	I	yes
t21	le recul	32	10:15:52	3	0	le reCul	7573	de teruggang	2	I	I	I	yes
t21	le recul	11	9:23:20	3	0	le rebond	6510	de teruggang	1	I	I	I	yes
t22	le renard	18	9:14:27	24	1	le renard	2131	de vos	2	I	I	I	yes
t22	le renard	9	9:19:18	24	0	le renart	2526	de vos	1	I	I	I	yes
t22	le renard	23	10:46:39	24	1	le renard	1955	de vos	1	I	I	I	yes
t22	le renard	11	9:23:20	24	1	le renard	6206	de vos	1	I	I	I	yes
t22	le renard	28	12:43:39	24	1	le renard	8218	de vos	2	I	I	I	yes
t22	le renard	14	11:56:44	24	1	le renard	2622	de vos	2	I	I	I	yes
t22	le renard	20	16:51:09	24	1	le renard	2693	de vos	2	I	I	I	yes
t22	le renard	33	12:26:45	24	1	le renard	1138	de vos	1	I	I	I	yes
t22	le renard	26	14:24:22	24	1	le renard	5970	de vos	2	I	I	I	yes
t22	le renard	36	13:25:02	24	1	le renard	2255	de vos	2	I	I	I	yes
t22	le renard	3	9:16:47	24	1	le renard	2027	de vos	1	I	I	I	yes
t22	le renard	29	10:16:37	24	0	la renard	6862	de vos	1	I	I	I	yes
t22	le renard	30	10:46:01	24	1	le renard	2489	de vos	2	I	I	I	yes
t22	le renard	16	10:16:26	24	1	le renard	1689	de vos	2	I	I	I	yes
t22	le renard	25	9:23:33	24	1	le renard	2600	de vos	1	I	I	I	yes
t22	le renard	15	14:49:18	24	0	le requin	6211	de vos	1	I	I	I	yes
t22	le renard	10	16:44:14	24	0	le puret	2827	de vos	2	I	I	I	yes
t22	le renard	13	11:13:58	24	1	le renard	4814	de vos	1	I	I	I	yes
t22	le renard	21	10:18:59	24	1	Le renard	2081	de vos	1	I	I	I	yes
t22	le renard	42	14:23:45	24	1	le renard	2429	de vos	1	I	I	I	yes
t22	le renard	17	13:48:17	24	0	le regard	2899	de vos	1	I	I	I	yes
t22	le renard	8	12:41:56	24	0		743	de vos	2	I	I	I	yes
t22	le renard	22	14:14:35	24	1	le renard	3861	de vos	2	I	I	I	yes
t22	le renard	27	9:12:11	24	0	le reinard	8806	de vos	1	I	I	I	yes
t22	le renard	32	10:15:52	24	1	le renard	2858	de vos	2	I	I	I	yes
t22	le renard	12	10:15:38	24	0	Le renArd	3481	de vos	2	I	I	I	yes
t22	le renard	35	12:12:35	24	1	le renard	3096	de vos	1	I	I	I	yes
t22	le renard	5	13:15:07	24	1	le renard	1976	de vos	1	I	I	I	yes
t22	le renard	2	13:48:02	24	0	el renard	34375	de vos	2	I	I	I	yes
t22	le renard	7	13:22:54	24	1	le renard	7435	de vos	1	I	I	I	yes
t22	le renard	41	9:42:21	24	0	le renart	1756	de vos	1	I	I	I	yes
t22	le renard	24	11:12:07	24	0	le rEnard	2989	de vos	2	I	I	I	yes
t22	le renard	6	11:47:48	24	0	le renarde	3426	de vos	2	I	I	I	yes
t22	le renard	34	14:47:38	24	1	le renard	2357	de vos	2	I	I	I	yes
t23	la secousse	35	12:12:35	20	0	le recousse	28246	de ruk	1	L	L	L	no
t23	la secousse	10	16:44:14	20	0	le pont	1694	de ruk	2	L	L	L	no
t23	la secousse	30	10:46:01	20	0		9972	de ruk	2	L	L	L	no
t23	la secousse	27	9:12:11	20	0	le servage	12734	de ruk	1	L	L	L	no
t23	la secousse	13	11:13:58	20	0	le secouse	26325	de ruk	1	L	L	L	no
t23	la secousse	32	10:15:52	20	0	la semoulle	3128	de ruk	2	L	L	L	no
t23	la secousse	21	10:18:59	20	0	p	3994	de ruk	1	L	L	L	no
t23	la secousse	17	13:48:17	20	0	le secouse	5096	de ruk	1	L	L	L	no
t23	la secousse	12	10:15:38	20	0	La Secuse	3207	de ruk	2	L	L	L	no
t23	la secousse	2	13:48:02	20	0	el cheville	31763	de ruk	2	L	L	L	no
t23	la secousse	22	14:14:35	20	0	{?}	3420	de ruk	2	L	L	L	no
t23	la secousse	20	16:51:09	20	0	le secousse	11304	de ruk	2	L	L	L	no
t23	la secousse	33	12:26:45	20	1	la secousse	7333	de ruk	1	L	L	L	no
t23	la secousse	23	10:46:39	20	0	pas	705	de ruk	1	L	L	L	no
t23	la secousse	28	12:43:39	20	0	le secuse	31483	de ruk	2	L	L	L	no
t23	la secousse	14	11:56:44	20	0	le recouse	2926	de ruk	2	L	L	L	no
t23	la secousse	6	11:47:48	20	0	le rebond	2990	de ruk	2	L	L	L	no
t23	la secousse	41	9:42:21	20	0	la sauvage	6381	de ruk	1	L	L	L	no
t23	la secousse	3	9:16:47	20	0	la souvrette	4838	de ruk	1	L	L	L	no
t23	la secousse	5	13:15:07	20	0	la secouche	7219	de ruk	1	L	L	L	no
t23	la secousse	9	9:19:18	20	0	la secout	3873	de ruk	1	L	L	L	no
t23	la secousse	36	13:25:02	20	0	le 	7961	de ruk	2	L	L	L	no
t23	la secousse	25	9:23:33	20	0	la secondiere	9539	de ruk	1	L	L	L	no
t23	la secousse	15	14:49:18	20	0	le recule	4575	de ruk	1	L	L	L	no
t23	la secousse	24	11:12:07	20	0	le shousse	10975	de ruk	2	L	L	L	no
t23	la secousse	16	10:16:26	20	0	le s	2086	de ruk	2	L	L	L	no
t23	la secousse	11	9:23:20	20	0	la se{.}{.}{.}	36210	de ruk	1	L	L	L	no
t23	la secousse	26	14:24:22	20	0	la rechute	8842	de ruk	2	L	L	L	no
t23	la secousse	42	14:23:45	20	0	le 	16464	de ruk	1	L	L	L	no
t23	la secousse	7	13:22:54	20	0	le secoure	14377	de ruk	1	L	L	L	no
t23	la secousse	34	14:47:38	20	0		25324	de ruk	2	L	L	L	no
t23	la secousse	18	9:14:27	20	0	le r	19417	de ruk	2	L	L	L	no
t23	la secousse	29	10:16:37	20	0		8464	de ruk	1	L	L	L	no
t23	la secousse	8	12:41:56	20	0	le recuit	8998	de ruk	2	L	L	L	no
t24	le faisan	22	14:14:35	21	0	la fazante	7429	de fazant	2	I	I	I	no
t24	le faisan	17	13:48:17	21	0	la faisant	2414	de fazant	1	I	I	I	no
t24	le faisan	16	10:16:26	21	0	le fasant	13719	de fazant	2	I	I	I	no
t24	le faisan	13	11:13:58	21	0	le faizant	7004	de fazant	1	I	I	I	no
t24	le faisan	6	11:47:48	21	0	 le phasant	3269	de fazant	2	I	I	I	no
t24	le faisan	21	10:18:59	21	0	Le fazant	34037	de fazant	1	I	I	I	no
t24	le faisan	20	16:51:09	21	0	le fezan	10342	de fazant	2	I	I	I	no
t24	le faisan	36	13:25:02	21	0	le fasant	11741	de fazant	2	I	I	I	no
t24	le faisan	24	11:12:07	21	1	le faisan	5504	de fazant	2	I	I	I	no
t24	le faisan	29	10:16:37	21	0	le foisant	51102	de fazant	1	I	I	I	no
t24	le faisan	10	16:44:14	21	0	la fasant	1917	de fazant	2	I	I	I	no
t24	le faisan	15	14:49:18	21	0	le fasant	9289	de fazant	1	I	I	I	no
t24	le faisan	28	12:43:39	21	0	le fasant	26649	de fazant	2	I	I	I	no
t24	le faisan	30	10:46:01	21	0	 le fasant	5629	de fazant	2	I	I	I	no
t24	le faisan	18	9:14:27	21	0	le fazant	3765	de fazant	2	I	I	I	no
t24	le faisan	11	9:23:20	21	0	le fEsant	23061	de fazant	1	I	I	I	no
t24	le faisan	9	9:19:18	21	0	la fazant	18496	de fazant	1	I	I	I	no
t24	le faisan	41	9:42:21	21	0	le fesant	11024	de fazant	1	I	I	I	no
t24	le faisan	25	9:23:33	21	0	le fasant	2408	de fazant	1	I	I	I	no
t24	le faisan	33	12:26:45	21	1	le faisan	1667	de fazant	1	I	I	I	no
t24	le faisan	27	9:12:11	21	0	le fazant	3840	de fazant	1	I	I	I	no
t24	le faisan	23	10:46:39	21	0	le faisant	4988	de fazant	1	I	I	I	no
t24	le faisan	26	14:24:22	21	0	le faisant	3961	de fazant	2	I	I	I	no
t24	le faisan	7	13:22:54	21	0	le fezant	8849	de fazant	1	I	I	I	no
t24	le faisan	5	13:15:07	21	0	le fezan	3670	de fazant	1	I	I	I	no
t24	le faisan	42	14:23:45	21	0	la faisant	5292	de fazant	1	I	I	I	no
t24	le faisan	12	10:15:38	21	0	Le fazant	8689	de fazant	2	I	I	I	no
t24	le faisan	34	14:47:38	21	0	le fazan	2675	de fazant	2	I	I	I	no
t24	le faisan	8	12:41:56	21	0	la fassant	5455	de fazant	2	I	I	I	no
t24	le faisan	14	11:56:44	21	0	la fezante	14931	de fazant	2	I	I	I	no
t24	le faisan	3	9:16:47	21	0	le fazant	3157	de fazant	1	I	I	I	no
t24	le faisan	2	13:48:02	21	0	el fagant	62236	de fazant	2	I	I	I	no
t24	le faisan	32	10:15:52	21	0	le fasant	6806	de fazant	2	I	I	I	no
t24	le faisan	35	12:12:35	21	1	le faisan	2487	de fazant	1	I	I	I	no
