"subject_oexp"	"Subject"	"Age"	"Handedness"	"ResearcherID"	"SessionTime"	"Sex"	"Block"	"CorrectLeft"	"CorrectRight"	"Stimulus.CRESP"	"Stimulus.RESP"	"Stimulus.ACC"	"Stimulus.RT"	"Stimulus8"	"oexperiment"	"spelling"	"group"
"1001_1"	1001	21	"right"	"Other"	"11:07:56"	"female"	45	5	1	1	5	0	586	"retruire"	"1"	"-spelling"	1
"1001_1"	1001	21	"right"	"Other"	"11:07:56"	"female"	44	1	5	5	1	0	1077	"peigne"	"1"	"-spelling"	1
"1001_1"	1001	21	"right"	"Other"	"11:07:56"	"female"	12	5	1	1	5	0	757	"pourcine"	"1"	"-spelling"	1
"1001_1"	1001	21	"right"	"Other"	"11:07:56"	"female"	46	1	5	5	5	1	479	"crayon"	"1"	"-spelling"	1
"1001_1"	1001	21	"right"	"Other"	"11:07:56"	"female"	15	5	1	1	5	0	609	"plaiser"	"1"	"-spelling"	1
"1001_1"	1001	21	"right"	"Other"	"11:07:56"	"female"	16	5	1	1	5	0	582	"cerveler"	"1"	"-spelling"	1
"1001_1"	1001	21	"right"	"Other"	"11:07:56"	"female"	13	1	5	5	1	0	696	"œillet"	"1"	"-spelling"	1
"1001_1"	1001	21	"right"	"Other"	"11:07:56"	"female"	43	1	5	5	1	0	776	"amadouer"	"1"	"-spelling"	1
"1001_1"	1001	21	"right"	"Other"	"11:07:56"	"female"	47	5	1	1	5	0	778	"sentuelle"	"1"	"-spelling"	1
"1001_1"	1001	21	"right"	"Other"	"11:07:56"	"female"	48	1	5	5	1	0	883	"alourdir"	"1"	"-spelling"	1
"1001_1"	1001	21	"right"	"Other"	"11:07:56"	"female"	17	5	1	1	5	0	637	"endifier"	"1"	"-spelling"	1
"1001_1"	1001	21	"right"	"Other"	"11:07:56"	"female"	18	5	1	1	5	0	568	"jamain"	"1"	"-spelling"	1
"1001_1"	1001	21	"right"	"Other"	"11:07:56"	"female"	10	1	5	5	1	0	728	"cadenas"	"1"	"-spelling"	1
"1001_1"	1001	21	"right"	"Other"	"11:07:56"	"female"	11	1	5	5	5	1	674	"racaille"	"1"	"-spelling"	1
"1001_1"	1001	21	"right"	"Other"	"11:07:56"	"female"	24	1	5	5	5	1	653	"salière"	"1"	"-spelling"	1
"1001_1"	1001	21	"right"	"Other"	"11:07:56"	"female"	25	1	5	5	5	1	576	"fouet"	"1"	"-spelling"	1
"1001_1"	1001	21	"right"	"Other"	"11:07:56"	"female"	14	5	1	1	1	1	912	"raplaner"	"1"	"-spelling"	1
"1001_1"	1001	21	"right"	"Other"	"11:07:56"	"female"	29	5	1	1	5	0	623	"gloque"	"1"	"-spelling"	1
"1001_1"	1001	21	"right"	"Other"	"11:07:56"	"female"	30	1	5	5	5	1	661	"lézard"	"1"	"-spelling"	1
"1001_1"	1001	21	"right"	"Other"	"11:07:56"	"female"	31	5	1	1	1	1	756	"sacher"	"1"	"-spelling"	1
"1001_1"	1001	21	"right"	"Other"	"11:07:56"	"female"	32	1	5	5	1	0	1534	"nouer"	"1"	"-spelling"	1
"1001_1"	1001	21	"right"	"Other"	"11:07:56"	"female"	33	1	5	5	5	1	1089	"occire"	"1"	"-spelling"	1
"1001_1"	1001	21	"right"	"Other"	"11:07:56"	"female"	34	5	1	1	5	0	583	"écouce"	"1"	"-spelling"	1
"1001_1"	1001	21	"right"	"Other"	"11:07:56"	"female"	35	5	1	1	5	0	780	"osseaux"	"1"	"-spelling"	1
"1001_1"	1001	21	"right"	"Other"	"11:07:56"	"female"	36	5	1	1	5	0	714	"rejoute"	"1"	"-spelling"	1
"1001_1"	1001	21	"right"	"Other"	"11:07:56"	"female"	37	1	5	5	5	1	1694	"escroc"	"1"	"-spelling"	1
"1001_1"	1001	21	"right"	"Other"	"11:07:56"	"female"	38	1	5	5	1	0	649	"hache"	"1"	"-spelling"	1
"1001_1"	1001	21	"right"	"Other"	"11:07:56"	"female"	39	5	1	1	5	0	657	"parchance"	"1"	"-spelling"	1
"1001_1"	1001	21	"right"	"Other"	"11:07:56"	"female"	40	1	5	5	5	1	834	"pinceau"	"1"	"-spelling"	1
"1001_1"	1001	21	"right"	"Other"	"11:07:56"	"female"	41	1	5	5	5	1	585	"poisson"	"1"	"-spelling"	1
"1001_1"	1001	21	"right"	"Other"	"11:07:56"	"female"	42	1	5	5	1	0	1123	"robinet"	"1"	"-spelling"	1
"1001_1"	1001	21	"right"	"Other"	"11:07:56"	"female"	1	1	5	5	5	1	1673	"cheveux"	"1"	"-spelling"	1
"1001_1"	1001	21	"right"	"Other"	"11:07:56"	"female"	2	5	1	1	1	1	765	"soumon"	"1"	"-spelling"	1
"1001_1"	1001	21	"right"	"Other"	"11:07:56"	"female"	3	1	5	5	1	0	906	"cloche"	"1"	"-spelling"	1
"1001_1"	1001	21	"right"	"Other"	"11:07:56"	"female"	4	1	5	5	5	1	749	"fascine"	"1"	"-spelling"	1
"1001_1"	1001	21	"right"	"Other"	"11:07:56"	"female"	5	5	1	1	1	1	819	"huif"	"1"	"-spelling"	1
"1001_1"	1001	21	"right"	"Other"	"11:07:56"	"female"	6	1	5	5	1	0	1060	"semonce"	"1"	"-spelling"	1
"1001_1"	1001	21	"right"	"Other"	"11:07:56"	"female"	7	1	5	5	1	0	679	"canoter "	"1"	"-spelling"	1
"1001_1"	1001	21	"right"	"Other"	"11:07:56"	"female"	8	1	5	5	5	1	761	"infâme"	"1"	"-spelling"	1
"1001_1"	1001	21	"right"	"Other"	"11:07:56"	"female"	9	1	5	5	5	1	622	"fourmi"	"1"	"-spelling"	1
"1001_1"	1001	21	"right"	"Other"	"11:07:56"	"female"	51	1	5	5	5	1	795	"treillage"	"1"	"-spelling"	1
"1001_1"	1001	21	"right"	"Other"	"11:07:56"	"female"	52	1	5	5	1	0	900	"dauphin"	"1"	"-spelling"	1
"1001_1"	1001	21	"right"	"Other"	"11:07:56"	"female"	53	1	5	5	5	1	672	"orgueil"	"1"	"-spelling"	1
"1001_1"	1001	21	"right"	"Other"	"11:07:56"	"female"	54	1	5	5	5	1	849	"amorce"	"1"	"-spelling"	1
"1001_1"	1001	21	"right"	"Other"	"11:07:56"	"female"	55	1	5	5	1	0	1412	"cintre"	"1"	"-spelling"	1
"1001_1"	1001	21	"right"	"Other"	"11:07:56"	"female"	56	1	5	5	5	1	1488	"chameau"	"1"	"-spelling"	1
"1001_1"	1001	21	"right"	"Other"	"11:07:56"	"female"	57	1	5	5	1	0	979	"bouton"	"1"	"-spelling"	1
"1001_1"	1001	21	"right"	"Other"	"11:07:56"	"female"	58	1	5	5	5	1	691	"capeline"	"1"	"-spelling"	1
"1001_1"	1001	21	"right"	"Other"	"11:07:56"	"female"	59	1	5	5	5	1	803	"lanière"	"1"	"-spelling"	1
"1001_1"	1001	21	"right"	"Other"	"11:07:56"	"female"	19	1	5	5	1	0	659	"ennemi"	"1"	"-spelling"	1
"1001_1"	1001	21	"right"	"Other"	"11:07:56"	"female"	20	1	5	5	5	1	495	"pouce"	"1"	"-spelling"	1
"1001_1"	1001	21	"right"	"Other"	"11:07:56"	"female"	21	5	1	1	1	1	608	"metter"	"1"	"-spelling"	1
"1001_1"	1001	21	"right"	"Other"	"11:07:56"	"female"	22	1	5	5	5	1	608	"fosse"	"1"	"-spelling"	1
"1001_1"	1001	21	"right"	"Other"	"11:07:56"	"female"	23	1	5	5	5	1	518	"inciter"	"1"	"-spelling"	1
"1001_1"	1001	21	"right"	"Other"	"11:07:56"	"female"	65	5	1	1	5	0	1095	"détume"	"1"	"-spelling"	1
"1001_1"	1001	21	"right"	"Other"	"11:07:56"	"female"	66	5	1	1	1	1	1037	"oeuiller"	"1"	"-spelling"	1
"1001_1"	1001	21	"right"	"Other"	"11:07:56"	"female"	26	5	1	1	5	0	619	"cessure"	"1"	"-spelling"	1
"1001_1"	1001	21	"right"	"Other"	"11:07:56"	"female"	27	1	5	5	1	0	763	"clouer"	"1"	"-spelling"	1
"1001_1"	1001	21	"right"	"Other"	"11:07:56"	"female"	28	1	5	5	1	0	950	"mappemonde"	"1"	"-spelling"	1
"1001_1"	1001	21	"right"	"Other"	"11:07:56"	"female"	69	1	5	5	1	0	1454	"vicelard"	"1"	"-spelling"	1
"1001_1"	1001	21	"right"	"Other"	"11:07:56"	"female"	70	5	1	1	1	1	585	"joueux"	"1"	"-spelling"	1
"1001_1"	1001	21	"right"	"Other"	"11:07:56"	"female"	71	5	1	1	5	0	1627	"agire"	"1"	"-spelling"	1
"1001_1"	1001	21	"right"	"Other"	"11:07:56"	"female"	72	1	5	5	1	0	1869	"éventail"	"1"	"-spelling"	1
"1001_1"	1001	21	"right"	"Other"	"11:07:56"	"female"	73	5	1	1	5	0	1050	"boutard"	"1"	"-spelling"	1
"1001_1"	1001	21	"right"	"Other"	"11:07:56"	"female"	74	1	5	5	5	1	517	"panier"	"1"	"-spelling"	1
"1001_1"	1001	21	"right"	"Other"	"11:07:56"	"female"	75	1	5	5	5	1	1154	"citrouille"	"1"	"-spelling"	1
"1001_1"	1001	21	"right"	"Other"	"11:07:56"	"female"	76	1	5	5	5	1	729	"bouilloire"	"1"	"-spelling"	1
"1001_1"	1001	21	"right"	"Other"	"11:07:56"	"female"	77	5	1	1	5	0	854	"parir"	"1"	"-spelling"	1
"1001_1"	1001	21	"right"	"Other"	"11:07:56"	"female"	78	1	5	5	1	0	1439	"remporter"	"1"	"-spelling"	1
"1001_1"	1001	21	"right"	"Other"	"11:07:56"	"female"	79	5	1	1	1	1	1114	"procoreux"	"1"	"-spelling"	1
"1001_1"	1001	21	"right"	"Other"	"11:07:56"	"female"	80	1	5	5	1	0	1915	"tanin"	"1"	"-spelling"	1
"1001_1"	1001	21	"right"	"Other"	"11:07:56"	"female"	81	1	5	5	1	0	1309	"église"	"1"	"-spelling"	1
"1001_1"	1001	21	"right"	"Other"	"11:07:56"	"female"	82	1	5	5	5	1	823	"indicible"	"1"	"-spelling"	1
"1001_1"	1001	21	"right"	"Other"	"11:07:56"	"female"	83	5	1	1	1	1	985	"réporce"	"1"	"-spelling"	1
"1001_1"	1001	21	"right"	"Other"	"11:07:56"	"female"	84	1	5	5	5	1	830	"mignon"	"1"	"-spelling"	1
"1001_1"	1001	21	"right"	"Other"	"11:07:56"	"female"	50	1	5	5	1	0	1018	"esquif"	"1"	"-spelling"	1
"1001_1"	1001	21	"right"	"Other"	"11:07:56"	"female"	60	5	1	1	1	1	1303	"honteur"	"1"	"-spelling"	1
"1001_1"	1001	21	"right"	"Other"	"11:07:56"	"female"	61	1	5	5	5	1	776	"abêtir"	"1"	"-spelling"	1
"1001_1"	1001	21	"right"	"Other"	"11:07:56"	"female"	49	1	5	5	5	1	621	"marteau"	"1"	"-spelling"	1
"1001_1"	1001	21	"right"	"Other"	"11:07:56"	"female"	62	1	5	5	5	1	537	"fenêtre"	"1"	"-spelling"	1
"1001_1"	1001	21	"right"	"Other"	"11:07:56"	"female"	64	1	5	5	1	0	966	"caddie"	"1"	"-spelling"	1
"1001_1"	1001	21	"right"	"Other"	"11:07:56"	"female"	68	5	1	1	5	0	1455	"prioche"	"1"	"-spelling"	1
"1001_1"	1001	21	"right"	"Other"	"11:07:56"	"female"	67	1	5	5	1	0	757	"balai"	"1"	"-spelling"	1
"1001_1"	1001	21	"right"	"Other"	"11:07:56"	"female"	63	1	5	5	1	0	1323	"écureuil "	"1"	"-spelling"	1
"1005_1"	1005	21	"right"	"Ilse"	"13:22:27"	"female"	2	5	1	1	1	1	1701	"soumon"	"1"	"-spelling"	1
"1005_1"	1005	21	"right"	"Ilse"	"13:22:27"	"female"	3	1	5	5	1	0	1187	"cloche"	"1"	"-spelling"	1
"1005_1"	1005	21	"right"	"Ilse"	"13:22:27"	"female"	10	1	5	5	1	0	2546	"cadenas"	"1"	"-spelling"	1
"1005_1"	1005	21	"right"	"Ilse"	"13:22:27"	"female"	7	1	5	5	1	0	1474	"canoter "	"1"	"-spelling"	1
"1005_1"	1005	21	"right"	"Ilse"	"13:22:27"	"female"	8	1	5	5	1	0	1521	"infâme"	"1"	"-spelling"	1
"1005_1"	1005	21	"right"	"Ilse"	"13:22:27"	"female"	9	1	5	5	1	0	2024	"fourmi"	"1"	"-spelling"	1
"1005_1"	1005	21	"right"	"Ilse"	"13:22:27"	"female"	1	1	5	5	1	0	12958	"cheveux"	"1"	"-spelling"	1
"1005_1"	1005	21	"right"	"Ilse"	"13:22:27"	"female"	55	1	5	5	1	0	1746	"cintre"	"1"	"-spelling"	1
"1005_1"	1005	21	"right"	"Ilse"	"13:22:27"	"female"	56	1	5	5	1	0	1614	"chameau"	"1"	"-spelling"	1
"1005_1"	1005	21	"right"	"Ilse"	"13:22:27"	"female"	4	1	5	5	1	0	1229	"fascine"	"1"	"-spelling"	1
"1005_1"	1005	21	"right"	"Ilse"	"13:22:27"	"female"	5	5	1	1	1	1	1687	"huif"	"1"	"-spelling"	1
"1005_1"	1005	21	"right"	"Ilse"	"13:22:27"	"female"	6	1	5	5	1	0	1483	"semonce"	"1"	"-spelling"	1
"1005_1"	1005	21	"right"	"Ilse"	"13:22:27"	"female"	20	1	5	5	1	0	3008	"pouce"	"1"	"-spelling"	1
"1005_1"	1005	21	"right"	"Ilse"	"13:22:27"	"female"	21	5	1	1	1	1	1372	"metter"	"1"	"-spelling"	1
"1005_1"	1005	21	"right"	"Ilse"	"13:22:27"	"female"	22	1	5	5	1	0	2157	"fosse"	"1"	"-spelling"	1
"1005_1"	1005	21	"right"	"Ilse"	"13:22:27"	"female"	23	1	5	5	1	0	1298	"inciter"	"1"	"-spelling"	1
"1005_1"	1005	21	"right"	"Ilse"	"13:22:27"	"female"	24	1	5	5	1	0	1202	"salière"	"1"	"-spelling"	1
"1005_1"	1005	21	"right"	"Ilse"	"13:22:27"	"female"	25	1	5	5	5	1	1161	"fouet"	"1"	"-spelling"	1
"1005_1"	1005	21	"right"	"Ilse"	"13:22:27"	"female"	26	5	1	1	5	0	1617	"cessure"	"1"	"-spelling"	1
"1005_1"	1005	21	"right"	"Ilse"	"13:22:27"	"female"	27	1	5	5	1	0	1012	"clouer"	"1"	"-spelling"	1
"1005_1"	1005	21	"right"	"Ilse"	"13:22:27"	"female"	28	1	5	5	1	0	1237	"mappemonde"	"1"	"-spelling"	1
"1005_1"	1005	21	"right"	"Ilse"	"13:22:27"	"female"	29	5	1	1	1	1	2026	"gloque"	"1"	"-spelling"	1
"1005_1"	1005	21	"right"	"Ilse"	"13:22:27"	"female"	30	1	5	5	1	0	3085	"lézard"	"1"	"-spelling"	1
"1005_1"	1005	21	"right"	"Ilse"	"13:22:27"	"female"	31	5	1	1	5	0	1387	"sacher"	"1"	"-spelling"	1
"1005_1"	1005	21	"right"	"Ilse"	"13:22:27"	"female"	32	1	5	5	1	0	1780	"nouer"	"1"	"-spelling"	1
"1005_1"	1005	21	"right"	"Ilse"	"13:22:27"	"female"	33	1	5	5	1	0	1055	"occire"	"1"	"-spelling"	1
"1005_1"	1005	21	"right"	"Ilse"	"13:22:27"	"female"	34	5	1	1	1	1	3554	"écouce"	"1"	"-spelling"	1
"1005_1"	1005	21	"right"	"Ilse"	"13:22:27"	"female"	35	5	1	1	1	1	1271	"osseaux"	"1"	"-spelling"	1
"1005_1"	1005	21	"right"	"Ilse"	"13:22:27"	"female"	36	5	1	1	1	1	1714	"rejoute"	"1"	"-spelling"	1
"1005_1"	1005	21	"right"	"Ilse"	"13:22:27"	"female"	37	1	5	5	1	0	4793	"escroc"	"1"	"-spelling"	1
"1005_1"	1005	21	"right"	"Ilse"	"13:22:27"	"female"	38	1	5	5	1	0	1897	"hache"	"1"	"-spelling"	1
"1005_1"	1005	21	"right"	"Ilse"	"13:22:27"	"female"	39	5	1	1	5	0	2269	"parchance"	"1"	"-spelling"	1
"1005_1"	1005	21	"right"	"Ilse"	"13:22:27"	"female"	40	1	5	5	1	0	1492	"pinceau"	"1"	"-spelling"	1
"1005_1"	1005	21	"right"	"Ilse"	"13:22:27"	"female"	41	1	5	5	5	1	863	"poisson"	"1"	"-spelling"	1
"1005_1"	1005	21	"right"	"Ilse"	"13:22:27"	"female"	42	1	5	5	1	0	956	"robinet"	"1"	"-spelling"	1
"1005_1"	1005	21	"right"	"Ilse"	"13:22:27"	"female"	43	1	5	5	1	0	1640	"amadouer"	"1"	"-spelling"	1
"1005_1"	1005	21	"right"	"Ilse"	"13:22:27"	"female"	44	1	5	5	1	0	1026	"peigne"	"1"	"-spelling"	1
"1005_1"	1005	21	"right"	"Ilse"	"13:22:27"	"female"	45	5	1	1	5	0	1479	"retruire"	"1"	"-spelling"	1
"1005_1"	1005	21	"right"	"Ilse"	"13:22:27"	"female"	46	1	5	5	1	0	1507	"crayon"	"1"	"-spelling"	1
"1005_1"	1005	21	"right"	"Ilse"	"13:22:27"	"female"	47	5	1	1	1	1	1092	"sentuelle"	"1"	"-spelling"	1
"1005_1"	1005	21	"right"	"Ilse"	"13:22:27"	"female"	48	1	5	5	1	0	1638	"alourdir"	"1"	"-spelling"	1
"1005_1"	1005	21	"right"	"Ilse"	"13:22:27"	"female"	49	1	5	5	1	0	2220	"marteau"	"1"	"-spelling"	1
"1005_1"	1005	21	"right"	"Ilse"	"13:22:27"	"female"	50	1	5	5	1	0	2428	"esquif"	"1"	"-spelling"	1
"1005_1"	1005	21	"right"	"Ilse"	"13:22:27"	"female"	51	1	5	5	1	0	1459	"treillage"	"1"	"-spelling"	1
"1005_1"	1005	21	"right"	"Ilse"	"13:22:27"	"female"	52	1	5	5	1	0	3231	"dauphin"	"1"	"-spelling"	1
"1005_1"	1005	21	"right"	"Ilse"	"13:22:27"	"female"	53	1	5	5	1	0	1164	"orgueil"	"1"	"-spelling"	1
"1005_1"	1005	21	"right"	"Ilse"	"13:22:27"	"female"	54	1	5	5	1	0	1914	"amorce"	"1"	"-spelling"	1
"1005_1"	1005	21	"right"	"Ilse"	"13:22:27"	"female"	14	5	1	1	1	1	1157	"raplaner"	"1"	"-spelling"	1
"1005_1"	1005	21	"right"	"Ilse"	"13:22:27"	"female"	15	5	1	1	1	1	2230	"plaiser"	"1"	"-spelling"	1
"1005_1"	1005	21	"right"	"Ilse"	"13:22:27"	"female"	16	5	1	1	1	1	3302	"cerveler"	"1"	"-spelling"	1
"1005_1"	1005	21	"right"	"Ilse"	"13:22:27"	"female"	17	5	1	1	1	1	1454	"endifier"	"1"	"-spelling"	1
"1005_1"	1005	21	"right"	"Ilse"	"13:22:27"	"female"	18	5	1	1	5	0	1395	"jamain"	"1"	"-spelling"	1
"1005_1"	1005	21	"right"	"Ilse"	"13:22:27"	"female"	19	1	5	5	1	0	1172	"ennemi"	"1"	"-spelling"	1
"1005_1"	1005	21	"right"	"Ilse"	"13:22:27"	"female"	59	1	5	5	1	0	3985	"lanière"	"1"	"-spelling"	1
"1005_1"	1005	21	"right"	"Ilse"	"13:22:27"	"female"	60	5	1	1	1	1	1041	"honteur"	"1"	"-spelling"	1
"1005_1"	1005	21	"right"	"Ilse"	"13:22:27"	"female"	61	1	5	5	1	0	1589	"abêtir"	"1"	"-spelling"	1
"1005_1"	1005	21	"right"	"Ilse"	"13:22:27"	"female"	62	1	5	5	5	1	1049	"fenêtre"	"1"	"-spelling"	1
"1005_1"	1005	21	"right"	"Ilse"	"13:22:27"	"female"	63	1	5	5	1	0	1150	"écureuil "	"1"	"-spelling"	1
"1005_1"	1005	21	"right"	"Ilse"	"13:22:27"	"female"	64	1	5	5	1	0	1295	"caddie"	"1"	"-spelling"	1
"1005_1"	1005	21	"right"	"Ilse"	"13:22:27"	"female"	65	5	1	1	1	1	1903	"détume"	"1"	"-spelling"	1
"1005_1"	1005	21	"right"	"Ilse"	"13:22:27"	"female"	66	5	1	1	1	1	1470	"oeuiller"	"1"	"-spelling"	1
"1005_1"	1005	21	"right"	"Ilse"	"13:22:27"	"female"	67	1	5	5	1	0	1146	"balai"	"1"	"-spelling"	1
"1005_1"	1005	21	"right"	"Ilse"	"13:22:27"	"female"	68	5	1	1	1	1	1013	"prioche"	"1"	"-spelling"	1
"1005_1"	1005	21	"right"	"Ilse"	"13:22:27"	"female"	69	1	5	5	1	0	681	"vicelard"	"1"	"-spelling"	1
"1005_1"	1005	21	"right"	"Ilse"	"13:22:27"	"female"	70	5	1	1	5	0	2172	"joueux"	"1"	"-spelling"	1
"1005_1"	1005	21	"right"	"Ilse"	"13:22:27"	"female"	71	5	1	1	5	0	3118	"agire"	"1"	"-spelling"	1
"1005_1"	1005	21	"right"	"Ilse"	"13:22:27"	"female"	72	1	5	5	1	0	1561	"éventail"	"1"	"-spelling"	1
"1005_1"	1005	21	"right"	"Ilse"	"13:22:27"	"female"	73	5	1	1	1	1	1082	"boutard"	"1"	"-spelling"	1
"1005_1"	1005	21	"right"	"Ilse"	"13:22:27"	"female"	74	1	5	5	1	0	1306	"panier"	"1"	"-spelling"	1
"1005_1"	1005	21	"right"	"Ilse"	"13:22:27"	"female"	75	1	5	5	1	0	1231	"citrouille"	"1"	"-spelling"	1
"1005_1"	1005	21	"right"	"Ilse"	"13:22:27"	"female"	76	1	5	5	1	0	1452	"bouilloire"	"1"	"-spelling"	1
"1005_1"	1005	21	"right"	"Ilse"	"13:22:27"	"female"	77	5	1	1	5	0	1363	"parir"	"1"	"-spelling"	1
"1005_1"	1005	21	"right"	"Ilse"	"13:22:27"	"female"	78	1	5	5	1	0	1514	"remporter"	"1"	"-spelling"	1
"1005_1"	1005	21	"right"	"Ilse"	"13:22:27"	"female"	79	5	1	1	1	1	3778	"procoreux"	"1"	"-spelling"	1
"1005_1"	1005	21	"right"	"Ilse"	"13:22:27"	"female"	80	1	5	5	1	0	1422	"tanin"	"1"	"-spelling"	1
"1005_1"	1005	21	"right"	"Ilse"	"13:22:27"	"female"	81	1	5	5	1	0	1313	"église"	"1"	"-spelling"	1
"1005_1"	1005	21	"right"	"Ilse"	"13:22:27"	"female"	82	1	5	5	1	0	2136	"indicible"	"1"	"-spelling"	1
"1005_1"	1005	21	"right"	"Ilse"	"13:22:27"	"female"	83	5	1	1	5	0	2450	"réporce"	"1"	"-spelling"	1
"1005_1"	1005	21	"right"	"Ilse"	"13:22:27"	"female"	84	1	5	5	1	0	1092	"mignon"	"1"	"-spelling"	1
"1005_1"	1005	21	"right"	"Ilse"	"13:22:27"	"female"	58	1	5	5	1	0	1597	"capeline"	"1"	"-spelling"	1
"1005_1"	1005	21	"right"	"Ilse"	"13:22:27"	"female"	11	1	5	5	5	1	3019	"racaille"	"1"	"-spelling"	1
"1005_1"	1005	21	"right"	"Ilse"	"13:22:27"	"female"	12	5	1	1	1	1	2389	"pourcine"	"1"	"-spelling"	1
"1005_1"	1005	21	"right"	"Ilse"	"13:22:27"	"female"	13	1	5	5	1	0	1592	"œillet"	"1"	"-spelling"	1
"1005_1"	1005	21	"right"	"Ilse"	"13:22:27"	"female"	57	1	5	5	1	0	1633	"bouton"	"1"	"-spelling"	1
"1010_1"	1010	25	"right"	"Nadia"	"12:21:23"	"female"	84	1	5	5	1	0	406	"mignon"	"1"	"-spelling"	1
"1010_1"	1010	25	"right"	"Nadia"	"12:21:23"	"female"	82	1	5	5	5	1	1152	"indicible"	"1"	"-spelling"	1
"1010_1"	1010	25	"right"	"Nadia"	"12:21:23"	"female"	83	5	1	1	1	1	841	"réporce"	"1"	"-spelling"	1
"1010_1"	1010	25	"right"	"Nadia"	"12:21:23"	"female"	48	1	5	5	1	0	445	"alourdir"	"1"	"-spelling"	1
"1010_1"	1010	25	"right"	"Nadia"	"12:21:23"	"female"	49	1	5	5	1	0	371	"marteau"	"1"	"-spelling"	1
"1010_1"	1010	25	"right"	"Nadia"	"12:21:23"	"female"	50	1	5	5	1	0	387	"esquif"	"1"	"-spelling"	1
"1010_1"	1010	25	"right"	"Nadia"	"12:21:23"	"female"	51	1	5	5	1	0	381	"treillage"	"1"	"-spelling"	1
"1010_1"	1010	25	"right"	"Nadia"	"12:21:23"	"female"	52	1	5	5	1	0	366	"dauphin"	"1"	"-spelling"	1
"1010_1"	1010	25	"right"	"Nadia"	"12:21:23"	"female"	53	1	5	5	1	0	457	"orgueil"	"1"	"-spelling"	1
"1010_1"	1010	25	"right"	"Nadia"	"12:21:23"	"female"	54	1	5	5	1	0	366	"amorce"	"1"	"-spelling"	1
"1010_1"	1010	25	"right"	"Nadia"	"12:21:23"	"female"	55	1	5	5	1	0	368	"cintre"	"1"	"-spelling"	1
"1010_1"	1010	25	"right"	"Nadia"	"12:21:23"	"female"	56	1	5	5	1	0	382	"chameau"	"1"	"-spelling"	1
"1010_1"	1010	25	"right"	"Nadia"	"12:21:23"	"female"	57	1	5	5	1	0	356	"bouton"	"1"	"-spelling"	1
"1010_1"	1010	25	"right"	"Nadia"	"12:21:23"	"female"	58	1	5	5	1	0	399	"capeline"	"1"	"-spelling"	1
"1010_1"	1010	25	"right"	"Nadia"	"12:21:23"	"female"	59	1	5	5	1	0	385	"lanière"	"1"	"-spelling"	1
"1010_1"	1010	25	"right"	"Nadia"	"12:21:23"	"female"	60	5	1	1	1	1	362	"honteur"	"1"	"-spelling"	1
"1010_1"	1010	25	"right"	"Nadia"	"12:21:23"	"female"	61	1	5	5	1	0	400	"abêtir"	"1"	"-spelling"	1
"1010_1"	1010	25	"right"	"Nadia"	"12:21:23"	"female"	62	1	5	5	1	0	368	"fenêtre"	"1"	"-spelling"	1
"1010_1"	1010	25	"right"	"Nadia"	"12:21:23"	"female"	63	1	5	5	1	0	481	"écureuil "	"1"	"-spelling"	1
"1010_1"	1010	25	"right"	"Nadia"	"12:21:23"	"female"	64	1	5	5	1	0	359	"caddie"	"1"	"-spelling"	1
"1010_1"	1010	25	"right"	"Nadia"	"12:21:23"	"female"	65	5	1	1	1	1	310	"détume"	"1"	"-spelling"	1
"1010_1"	1010	25	"right"	"Nadia"	"12:21:23"	"female"	66	5	1	1	1	1	423	"oeuiller"	"1"	"-spelling"	1
"1010_1"	1010	25	"right"	"Nadia"	"12:21:23"	"female"	67	1	5	5	1	0	284	"balai"	"1"	"-spelling"	1
"1010_1"	1010	25	"right"	"Nadia"	"12:21:23"	"female"	68	5	1	1	1	1	309	"prioche"	"1"	"-spelling"	1
"1010_1"	1010	25	"right"	"Nadia"	"12:21:23"	"female"	69	1	5	5	1	0	405	"vicelard"	"1"	"-spelling"	1
"1010_1"	1010	25	"right"	"Nadia"	"12:21:23"	"female"	70	5	1	1	1	1	563	"joueux"	"1"	"-spelling"	1
"1010_1"	1010	25	"right"	"Nadia"	"12:21:23"	"female"	71	5	1	1	1	1	342	"agire"	"1"	"-spelling"	1
"1010_1"	1010	25	"right"	"Nadia"	"12:21:23"	"female"	72	1	5	5	1	0	374	"éventail"	"1"	"-spelling"	1
"1010_1"	1010	25	"right"	"Nadia"	"12:21:23"	"female"	73	5	1	1	1	1	441	"boutard"	"1"	"-spelling"	1
"1010_1"	1010	25	"right"	"Nadia"	"12:21:23"	"female"	74	1	5	5	1	0	504	"panier"	"1"	"-spelling"	1
"1010_1"	1010	25	"right"	"Nadia"	"12:21:23"	"female"	75	1	5	5	1	0	747	"citrouille"	"1"	"-spelling"	1
"1010_1"	1010	25	"right"	"Nadia"	"12:21:23"	"female"	76	1	5	5	1	0	573	"bouilloire"	"1"	"-spelling"	1
"1010_1"	1010	25	"right"	"Nadia"	"12:21:23"	"female"	77	5	1	1	1	1	381	"parir"	"1"	"-spelling"	1
"1010_1"	1010	25	"right"	"Nadia"	"12:21:23"	"female"	78	1	5	5	1	0	488	"remporter"	"1"	"-spelling"	1
"1010_1"	1010	25	"right"	"Nadia"	"12:21:23"	"female"	79	5	1	1	1	1	492	"procoreux"	"1"	"-spelling"	1
"1010_1"	1010	25	"right"	"Nadia"	"12:21:23"	"female"	80	1	5	5	1	0	405	"tanin"	"1"	"-spelling"	1
"1010_1"	1010	25	"right"	"Nadia"	"12:21:23"	"female"	81	1	5	5	1	0	389	"église"	"1"	"-spelling"	1
"1010_1"	1010	25	"right"	"Nadia"	"12:21:23"	"female"	1	1	5	5	5	1	1752	"cheveux"	"1"	"-spelling"	1
"1010_1"	1010	25	"right"	"Nadia"	"12:21:23"	"female"	2	5	1	1	1	1	847	"soumon"	"1"	"-spelling"	1
"1010_1"	1010	25	"right"	"Nadia"	"12:21:23"	"female"	3	1	5	5	1	0	626	"cloche"	"1"	"-spelling"	1
"1010_1"	1010	25	"right"	"Nadia"	"12:21:23"	"female"	4	1	5	5	1	0	1030	"fascine"	"1"	"-spelling"	1
"1010_1"	1010	25	"right"	"Nadia"	"12:21:23"	"female"	5	5	1	1	1	1	539	"huif"	"1"	"-spelling"	1
"1010_1"	1010	25	"right"	"Nadia"	"12:21:23"	"female"	6	1	5	5	1	0	912	"semonce"	"1"	"-spelling"	1
"1010_1"	1010	25	"right"	"Nadia"	"12:21:23"	"female"	7	1	5	5	1	0	528	"canoter "	"1"	"-spelling"	1
"1010_1"	1010	25	"right"	"Nadia"	"12:21:23"	"female"	8	1	5	5	1	0	533	"infâme"	"1"	"-spelling"	1
"1010_1"	1010	25	"right"	"Nadia"	"12:21:23"	"female"	9	1	5	5	1	0	450	"fourmi"	"1"	"-spelling"	1
"1010_1"	1010	25	"right"	"Nadia"	"12:21:23"	"female"	10	1	5	5	1	0	461	"cadenas"	"1"	"-spelling"	1
"1010_1"	1010	25	"right"	"Nadia"	"12:21:23"	"female"	11	1	5	5	1	0	658	"racaille"	"1"	"-spelling"	1
"1010_1"	1010	25	"right"	"Nadia"	"12:21:23"	"female"	12	5	1	1	1	1	553	"pourcine"	"1"	"-spelling"	1
"1010_1"	1010	25	"right"	"Nadia"	"12:21:23"	"female"	13	1	5	5	1	0	587	"œillet"	"1"	"-spelling"	1
"1010_1"	1010	25	"right"	"Nadia"	"12:21:23"	"female"	14	5	1	1	1	1	450	"raplaner"	"1"	"-spelling"	1
"1010_1"	1010	25	"right"	"Nadia"	"12:21:23"	"female"	15	5	1	1	1	1	646	"plaiser"	"1"	"-spelling"	1
"1010_1"	1010	25	"right"	"Nadia"	"12:21:23"	"female"	16	5	1	1	1	1	949	"cerveler"	"1"	"-spelling"	1
"1010_1"	1010	25	"right"	"Nadia"	"12:21:23"	"female"	17	5	1	1	1	1	596	"endifier"	"1"	"-spelling"	1
"1010_1"	1010	25	"right"	"Nadia"	"12:21:23"	"female"	18	5	1	1	1	1	964	"jamain"	"1"	"-spelling"	1
"1010_1"	1010	25	"right"	"Nadia"	"12:21:23"	"female"	19	1	5	5	1	0	456	"ennemi"	"1"	"-spelling"	1
"1010_1"	1010	25	"right"	"Nadia"	"12:21:23"	"female"	20	1	5	5	1	0	506	"pouce"	"1"	"-spelling"	1
"1010_1"	1010	25	"right"	"Nadia"	"12:21:23"	"female"	21	5	1	1	1	1	404	"metter"	"1"	"-spelling"	1
"1010_1"	1010	25	"right"	"Nadia"	"12:21:23"	"female"	22	1	5	5	1	0	364	"fosse"	"1"	"-spelling"	1
"1010_1"	1010	25	"right"	"Nadia"	"12:21:23"	"female"	23	1	5	5	1	0	456	"inciter"	"1"	"-spelling"	1
"1010_1"	1010	25	"right"	"Nadia"	"12:21:23"	"female"	24	1	5	5	1	0	674	"salière"	"1"	"-spelling"	1
"1010_1"	1010	25	"right"	"Nadia"	"12:21:23"	"female"	25	1	5	5	1	0	419	"fouet"	"1"	"-spelling"	1
"1010_1"	1010	25	"right"	"Nadia"	"12:21:23"	"female"	26	5	1	1	1	1	427	"cessure"	"1"	"-spelling"	1
"1010_1"	1010	25	"right"	"Nadia"	"12:21:23"	"female"	27	1	5	5	1	0	493	"clouer"	"1"	"-spelling"	1
"1010_1"	1010	25	"right"	"Nadia"	"12:21:23"	"female"	28	1	5	5	1	0	516	"mappemonde"	"1"	"-spelling"	1
"1010_1"	1010	25	"right"	"Nadia"	"12:21:23"	"female"	29	5	1	1	1	1	277	"gloque"	"1"	"-spelling"	1
"1010_1"	1010	25	"right"	"Nadia"	"12:21:23"	"female"	30	1	5	5	1	0	494	"lézard"	"1"	"-spelling"	1
"1010_1"	1010	25	"right"	"Nadia"	"12:21:23"	"female"	31	5	1	1	1	1	520	"sacher"	"1"	"-spelling"	1
"1010_1"	1010	25	"right"	"Nadia"	"12:21:23"	"female"	32	1	5	5	1	0	416	"nouer"	"1"	"-spelling"	1
"1010_1"	1010	25	"right"	"Nadia"	"12:21:23"	"female"	33	1	5	5	1	0	317	"occire"	"1"	"-spelling"	1
"1010_1"	1010	25	"right"	"Nadia"	"12:21:23"	"female"	34	5	1	1	1	1	364	"écouce"	"1"	"-spelling"	1
"1010_1"	1010	25	"right"	"Nadia"	"12:21:23"	"female"	35	5	1	1	1	1	423	"osseaux"	"1"	"-spelling"	1
"1010_1"	1010	25	"right"	"Nadia"	"12:21:23"	"female"	36	5	1	1	1	1	401	"rejoute"	"1"	"-spelling"	1
"1010_1"	1010	25	"right"	"Nadia"	"12:21:23"	"female"	37	1	5	5	1	0	367	"escroc"	"1"	"-spelling"	1
"1010_1"	1010	25	"right"	"Nadia"	"12:21:23"	"female"	38	1	5	5	1	0	368	"hache"	"1"	"-spelling"	1
"1010_1"	1010	25	"right"	"Nadia"	"12:21:23"	"female"	39	5	1	1	1	1	485	"parchance"	"1"	"-spelling"	1
"1010_1"	1010	25	"right"	"Nadia"	"12:21:23"	"female"	40	1	5	5	1	0	558	"pinceau"	"1"	"-spelling"	1
"1010_1"	1010	25	"right"	"Nadia"	"12:21:23"	"female"	41	1	5	5	5	1	1109	"poisson"	"1"	"-spelling"	1
"1010_1"	1010	25	"right"	"Nadia"	"12:21:23"	"female"	42	1	5	5	1	0	491	"robinet"	"1"	"-spelling"	1
"1010_1"	1010	25	"right"	"Nadia"	"12:21:23"	"female"	43	1	5	5	1	0	402	"amadouer"	"1"	"-spelling"	1
"1010_1"	1010	25	"right"	"Nadia"	"12:21:23"	"female"	44	1	5	5	1	0	384	"peigne"	"1"	"-spelling"	1
"1010_1"	1010	25	"right"	"Nadia"	"12:21:23"	"female"	45	5	1	1	1	1	395	"retruire"	"1"	"-spelling"	1
"1010_1"	1010	25	"right"	"Nadia"	"12:21:23"	"female"	46	1	5	5	5	1	1043	"crayon"	"1"	"-spelling"	1
"1010_1"	1010	25	"right"	"Nadia"	"12:21:23"	"female"	47	5	1	1	1	1	476	"sentuelle"	"1"	"-spelling"	1
"11_1"	11	18	"right"	"Ilse"	"14:47:43"	"female"	13	1	5	5	1	0	959	"œillet"	"1"	"-spelling"	1
"11_1"	11	18	"right"	"Ilse"	"14:47:43"	"female"	14	5	1	1	1	1	955	"raplaner"	"1"	"-spelling"	1
"11_1"	11	18	"right"	"Ilse"	"14:47:43"	"female"	12	5	1	1	5	0	1195	"pourcine"	"1"	"-spelling"	1
"11_1"	11	18	"right"	"Ilse"	"14:47:43"	"female"	17	5	1	1	1	1	1003	"endifier"	"1"	"-spelling"	1
"11_1"	11	18	"right"	"Ilse"	"14:47:43"	"female"	18	5	1	1	5	0	613	"jamain"	"1"	"-spelling"	1
"11_1"	11	18	"right"	"Ilse"	"14:47:43"	"female"	15	5	1	1	5	0	555	"plaiser"	"1"	"-spelling"	1
"11_1"	11	18	"right"	"Ilse"	"14:47:43"	"female"	20	1	5	5	5	1	757	"pouce"	"1"	"-spelling"	1
"11_1"	11	18	"right"	"Ilse"	"14:47:43"	"female"	21	5	1	1	1	1	739	"metter"	"1"	"-spelling"	1
"11_1"	11	18	"right"	"Ilse"	"14:47:43"	"female"	22	1	5	5	5	1	841	"fosse"	"1"	"-spelling"	1
"11_1"	11	18	"right"	"Ilse"	"14:47:43"	"female"	19	1	5	5	1	0	764	"ennemi"	"1"	"-spelling"	1
"11_1"	11	18	"right"	"Ilse"	"14:47:43"	"female"	24	1	5	5	5	1	738	"salière"	"1"	"-spelling"	1
"11_1"	11	18	"right"	"Ilse"	"14:47:43"	"female"	25	1	5	5	1	0	766	"fouet"	"1"	"-spelling"	1
"11_1"	11	18	"right"	"Ilse"	"14:47:43"	"female"	26	5	1	1	1	1	726	"cessure"	"1"	"-spelling"	1
"11_1"	11	18	"right"	"Ilse"	"14:47:43"	"female"	27	1	5	5	1	0	710	"clouer"	"1"	"-spelling"	1
"11_1"	11	18	"right"	"Ilse"	"14:47:43"	"female"	28	1	5	5	1	0	676	"mappemonde"	"1"	"-spelling"	1
"11_1"	11	18	"right"	"Ilse"	"14:47:43"	"female"	16	5	1	1	1	1	1391	"cerveler"	"1"	"-spelling"	1
"11_1"	11	18	"right"	"Ilse"	"14:47:43"	"female"	30	1	5	5	5	1	520	"lézard"	"1"	"-spelling"	1
"11_1"	11	18	"right"	"Ilse"	"14:47:43"	"female"	31	5	1	1	5	0	592	"sacher"	"1"	"-spelling"	1
"11_1"	11	18	"right"	"Ilse"	"14:47:43"	"female"	32	1	5	5	1	0	556	"nouer"	"1"	"-spelling"	1
"11_1"	11	18	"right"	"Ilse"	"14:47:43"	"female"	33	1	5	5	5	1	583	"occire"	"1"	"-spelling"	1
"11_1"	11	18	"right"	"Ilse"	"14:47:43"	"female"	35	5	1	1	5	0	767	"osseaux"	"1"	"-spelling"	1
"11_1"	11	18	"right"	"Ilse"	"14:47:43"	"female"	36	5	1	1	5	0	744	"rejoute"	"1"	"-spelling"	1
"11_1"	11	18	"right"	"Ilse"	"14:47:43"	"female"	23	1	5	5	5	1	685	"inciter"	"1"	"-spelling"	1
"11_1"	11	18	"right"	"Ilse"	"14:47:43"	"female"	38	1	5	5	1	0	678	"hache"	"1"	"-spelling"	1
"11_1"	11	18	"right"	"Ilse"	"14:47:43"	"female"	39	5	1	1	5	0	640	"parchance"	"1"	"-spelling"	1
"11_1"	11	18	"right"	"Ilse"	"14:47:43"	"female"	40	1	5	5	5	1	703	"pinceau"	"1"	"-spelling"	1
"11_1"	11	18	"right"	"Ilse"	"14:47:43"	"female"	41	1	5	5	5	1	606	"poisson"	"1"	"-spelling"	1
"11_1"	11	18	"right"	"Ilse"	"14:47:43"	"female"	42	1	5	5	1	0	796	"robinet"	"1"	"-spelling"	1
"11_1"	11	18	"right"	"Ilse"	"14:47:43"	"female"	29	5	1	1	1	1	989	"gloque"	"1"	"-spelling"	1
"11_1"	11	18	"right"	"Ilse"	"14:47:43"	"female"	43	1	5	5	1	0	685	"amadouer"	"1"	"-spelling"	1
"11_1"	11	18	"right"	"Ilse"	"14:47:43"	"female"	44	1	5	5	1	0	958	"peigne"	"1"	"-spelling"	1
"11_1"	11	18	"right"	"Ilse"	"14:47:43"	"female"	45	5	1	1	5	0	738	"retruire"	"1"	"-spelling"	1
"11_1"	11	18	"right"	"Ilse"	"14:47:43"	"female"	46	1	5	5	1	0	945	"crayon"	"1"	"-spelling"	1
"11_1"	11	18	"right"	"Ilse"	"14:47:43"	"female"	47	5	1	1	5	0	891	"sentuelle"	"1"	"-spelling"	1
"11_1"	11	18	"right"	"Ilse"	"14:47:43"	"female"	48	1	5	5	1	0	1261	"alourdir"	"1"	"-spelling"	1
"11_1"	11	18	"right"	"Ilse"	"14:47:43"	"female"	37	1	5	5	1	0	865	"escroc"	"1"	"-spelling"	1
"11_1"	11	18	"right"	"Ilse"	"14:47:43"	"female"	9	1	5	5	5	1	723	"fourmi"	"1"	"-spelling"	1
"11_1"	11	18	"right"	"Ilse"	"14:47:43"	"female"	11	1	5	5	1	0	796	"racaille"	"1"	"-spelling"	1
"11_1"	11	18	"right"	"Ilse"	"14:47:43"	"female"	53	1	5	5	1	0	764	"orgueil"	"1"	"-spelling"	1
"11_1"	11	18	"right"	"Ilse"	"14:47:43"	"female"	54	1	5	5	1	0	1106	"amorce"	"1"	"-spelling"	1
"11_1"	11	18	"right"	"Ilse"	"14:47:43"	"female"	55	1	5	5	1	0	1298	"cintre"	"1"	"-spelling"	1
"11_1"	11	18	"right"	"Ilse"	"14:47:43"	"female"	56	1	5	5	1	0	804	"chameau"	"1"	"-spelling"	1
"11_1"	11	18	"right"	"Ilse"	"14:47:43"	"female"	57	1	5	5	5	1	1103	"bouton"	"1"	"-spelling"	1
"11_1"	11	18	"right"	"Ilse"	"14:47:43"	"female"	58	1	5	5	1	0	689	"capeline"	"1"	"-spelling"	1
"11_1"	11	18	"right"	"Ilse"	"14:47:43"	"female"	59	1	5	5	1	0	809	"lanière"	"1"	"-spelling"	1
"11_1"	11	18	"right"	"Ilse"	"14:47:43"	"female"	60	5	1	1	5	0	1132	"honteur"	"1"	"-spelling"	1
"11_1"	11	18	"right"	"Ilse"	"14:47:43"	"female"	61	1	5	5	1	0	703	"abêtir"	"1"	"-spelling"	1
"11_1"	11	18	"right"	"Ilse"	"14:47:43"	"female"	62	1	5	5	5	1	642	"fenêtre"	"1"	"-spelling"	1
"11_1"	11	18	"right"	"Ilse"	"14:47:43"	"female"	63	1	5	5	5	1	1220	"écureuil "	"1"	"-spelling"	1
"11_1"	11	18	"right"	"Ilse"	"14:47:43"	"female"	64	1	5	5	1	0	537	"caddie"	"1"	"-spelling"	1
"11_1"	11	18	"right"	"Ilse"	"14:47:43"	"female"	65	5	1	1	1	1	959	"détume"	"1"	"-spelling"	1
"11_1"	11	18	"right"	"Ilse"	"14:47:43"	"female"	66	5	1	1	5	0	837	"oeuiller"	"1"	"-spelling"	1
"11_1"	11	18	"right"	"Ilse"	"14:47:43"	"female"	67	1	5	5	1	0	779	"balai"	"1"	"-spelling"	1
"11_1"	11	18	"right"	"Ilse"	"14:47:43"	"female"	68	5	1	1	5	0	798	"prioche"	"1"	"-spelling"	1
"11_1"	11	18	"right"	"Ilse"	"14:47:43"	"female"	69	1	5	5	1	0	778	"vicelard"	"1"	"-spelling"	1
"11_1"	11	18	"right"	"Ilse"	"14:47:43"	"female"	70	5	1	1	5	0	594	"joueux"	"1"	"-spelling"	1
"11_1"	11	18	"right"	"Ilse"	"14:47:43"	"female"	71	5	1	1	1	1	802	"agire"	"1"	"-spelling"	1
"11_1"	11	18	"right"	"Ilse"	"14:47:43"	"female"	72	1	5	5	1	0	1133	"éventail"	"1"	"-spelling"	1
"11_1"	11	18	"right"	"Ilse"	"14:47:43"	"female"	73	5	1	1	1	1	807	"boutard"	"1"	"-spelling"	1
"11_1"	11	18	"right"	"Ilse"	"14:47:43"	"female"	74	1	5	5	1	0	758	"panier"	"1"	"-spelling"	1
"11_1"	11	18	"right"	"Ilse"	"14:47:43"	"female"	34	5	1	1	5	0	595	"écouce"	"1"	"-spelling"	1
"11_1"	11	18	"right"	"Ilse"	"14:47:43"	"female"	75	1	5	5	1	0	1126	"citrouille"	"1"	"-spelling"	1
"11_1"	11	18	"right"	"Ilse"	"14:47:43"	"female"	76	1	5	5	5	1	1224	"bouilloire"	"1"	"-spelling"	1
"11_1"	11	18	"right"	"Ilse"	"14:47:43"	"female"	77	5	1	1	1	1	769	"parir"	"1"	"-spelling"	1
"11_1"	11	18	"right"	"Ilse"	"14:47:43"	"female"	78	1	5	5	5	1	758	"remporter"	"1"	"-spelling"	1
"11_1"	11	18	"right"	"Ilse"	"14:47:43"	"female"	79	5	1	1	1	1	1005	"procoreux"	"1"	"-spelling"	1
"11_1"	11	18	"right"	"Ilse"	"14:47:43"	"female"	80	1	5	5	1	0	584	"tanin"	"1"	"-spelling"	1
"11_1"	11	18	"right"	"Ilse"	"14:47:43"	"female"	81	1	5	5	1	0	558	"église"	"1"	"-spelling"	1
"11_1"	11	18	"right"	"Ilse"	"14:47:43"	"female"	82	1	5	5	1	0	661	"indicible"	"1"	"-spelling"	1
"11_1"	11	18	"right"	"Ilse"	"14:47:43"	"female"	83	5	1	1	5	0	616	"réporce"	"1"	"-spelling"	1
"11_1"	11	18	"right"	"Ilse"	"14:47:43"	"female"	84	1	5	5	5	1	701	"mignon"	"1"	"-spelling"	1
"11_1"	11	18	"right"	"Ilse"	"14:47:43"	"female"	3	1	5	5	5	1	695	"cloche"	"1"	"-spelling"	1
"11_1"	11	18	"right"	"Ilse"	"14:47:43"	"female"	4	1	5	5	1	0	1329	"fascine"	"1"	"-spelling"	1
"11_1"	11	18	"right"	"Ilse"	"14:47:43"	"female"	5	5	1	1	1	1	773	"huif"	"1"	"-spelling"	1
"11_1"	11	18	"right"	"Ilse"	"14:47:43"	"female"	6	1	5	5	5	1	688	"semonce"	"1"	"-spelling"	1
"11_1"	11	18	"right"	"Ilse"	"14:47:43"	"female"	7	1	5	5	1	0	781	"canoter "	"1"	"-spelling"	1
"11_1"	11	18	"right"	"Ilse"	"14:47:43"	"female"	49	1	5	5	1	0	677	"marteau"	"1"	"-spelling"	1
"11_1"	11	18	"right"	"Ilse"	"14:47:43"	"female"	10	1	5	5	5	1	1098	"cadenas"	"1"	"-spelling"	1
"11_1"	11	18	"right"	"Ilse"	"14:47:43"	"female"	51	1	5	5	1	0	947	"treillage"	"1"	"-spelling"	1
"11_1"	11	18	"right"	"Ilse"	"14:47:43"	"female"	52	1	5	5	5	1	1294	"dauphin"	"1"	"-spelling"	1
"11_1"	11	18	"right"	"Ilse"	"14:47:43"	"female"	2	5	1	1	1	1	802	"soumon"	"1"	"-spelling"	1
"11_1"	11	18	"right"	"Ilse"	"14:47:43"	"female"	8	1	5	5	1	0	914	"infâme"	"1"	"-spelling"	1
"11_1"	11	18	"right"	"Ilse"	"14:47:43"	"female"	1	1	5	5	5	1	1527	"cheveux"	"1"	"-spelling"	1
"11_1"	11	18	"right"	"Ilse"	"14:47:43"	"female"	50	1	5	5	1	0	579	"esquif"	"1"	"-spelling"	1
"15_1"	15	22	"right"	"Ilse"	"13:53:21"	"female"	42	1	5	5	1	0	1268	"robinet"	"1"	"-spelling"	1
"15_1"	15	22	"right"	"Ilse"	"13:53:21"	"female"	49	1	5	5	1	0	1367	"marteau"	"1"	"-spelling"	1
"15_1"	15	22	"right"	"Ilse"	"13:53:21"	"female"	50	1	5	5	1	0	726	"esquif"	"1"	"-spelling"	1
"15_1"	15	22	"right"	"Ilse"	"13:53:21"	"female"	43	1	5	5	1	0	1041	"amadouer"	"1"	"-spelling"	1
"15_1"	15	22	"right"	"Ilse"	"13:53:21"	"female"	53	1	5	5	1	0	760	"orgueil"	"1"	"-spelling"	1
"15_1"	15	22	"right"	"Ilse"	"13:53:21"	"female"	54	1	5	5	1	0	780	"amorce"	"1"	"-spelling"	1
"15_1"	15	22	"right"	"Ilse"	"13:53:21"	"female"	51	1	5	5	1	0	883	"treillage"	"1"	"-spelling"	1
"15_1"	15	22	"right"	"Ilse"	"13:53:21"	"female"	52	1	5	5	1	0	2620	"dauphin"	"1"	"-spelling"	1
"15_1"	15	22	"right"	"Ilse"	"13:53:21"	"female"	44	1	5	5	5	1	2078	"peigne"	"1"	"-spelling"	1
"15_1"	15	22	"right"	"Ilse"	"13:53:21"	"female"	45	5	1	1	5	0	1319	"retruire"	"1"	"-spelling"	1
"15_1"	15	22	"right"	"Ilse"	"13:53:21"	"female"	55	1	5	5	1	0	1053	"cintre"	"1"	"-spelling"	1
"15_1"	15	22	"right"	"Ilse"	"13:53:21"	"female"	56	1	5	5	5	1	1087	"chameau"	"1"	"-spelling"	1
"15_1"	15	22	"right"	"Ilse"	"13:53:21"	"female"	48	1	5	5	1	0	1772	"alourdir"	"1"	"-spelling"	1
"15_1"	15	22	"right"	"Ilse"	"13:53:21"	"female"	63	1	5	5	5	1	1111	"écureuil "	"1"	"-spelling"	1
"15_1"	15	22	"right"	"Ilse"	"13:53:21"	"female"	64	1	5	5	1	0	1050	"caddie"	"1"	"-spelling"	1
"15_1"	15	22	"right"	"Ilse"	"13:53:21"	"female"	65	5	1	1	1	1	1059	"détume"	"1"	"-spelling"	1
"15_1"	15	22	"right"	"Ilse"	"13:53:21"	"female"	66	5	1	1	1	1	2891	"oeuiller"	"1"	"-spelling"	1
"15_1"	15	22	"right"	"Ilse"	"13:53:21"	"female"	67	1	5	5	1	0	798	"balai"	"1"	"-spelling"	1
"15_1"	15	22	"right"	"Ilse"	"13:53:21"	"female"	68	5	1	1	1	1	712	"prioche"	"1"	"-spelling"	1
"15_1"	15	22	"right"	"Ilse"	"13:53:21"	"female"	69	1	5	5	1	0	1008	"vicelard"	"1"	"-spelling"	1
"15_1"	15	22	"right"	"Ilse"	"13:53:21"	"female"	70	5	1	1	5	0	932	"joueux"	"1"	"-spelling"	1
"15_1"	15	22	"right"	"Ilse"	"13:53:21"	"female"	57	1	5	5	5	1	698	"bouton"	"1"	"-spelling"	1
"15_1"	15	22	"right"	"Ilse"	"13:53:21"	"female"	58	1	5	5	1	0	1104	"capeline"	"1"	"-spelling"	1
"15_1"	15	22	"right"	"Ilse"	"13:53:21"	"female"	46	1	5	5	1	0	1749	"crayon"	"1"	"-spelling"	1
"15_1"	15	22	"right"	"Ilse"	"13:53:21"	"female"	47	5	1	1	1	1	1169	"sentuelle"	"1"	"-spelling"	1
"15_1"	15	22	"right"	"Ilse"	"13:53:21"	"female"	62	1	5	5	5	1	809	"fenêtre"	"1"	"-spelling"	1
"15_1"	15	22	"right"	"Ilse"	"13:53:21"	"female"	35	5	1	1	1	1	1139	"osseaux"	"1"	"-spelling"	1
"15_1"	15	22	"right"	"Ilse"	"13:53:21"	"female"	36	5	1	1	5	0	2915	"rejoute"	"1"	"-spelling"	1
"15_1"	15	22	"right"	"Ilse"	"13:53:21"	"female"	37	1	5	5	1	0	877	"escroc"	"1"	"-spelling"	1
"15_1"	15	22	"right"	"Ilse"	"13:53:21"	"female"	81	1	5	5	1	0	1448	"église"	"1"	"-spelling"	1
"15_1"	15	22	"right"	"Ilse"	"13:53:21"	"female"	82	1	5	5	5	1	1215	"indicible"	"1"	"-spelling"	1
"15_1"	15	22	"right"	"Ilse"	"13:53:21"	"female"	83	5	1	1	5	0	1478	"réporce"	"1"	"-spelling"	1
"15_1"	15	22	"right"	"Ilse"	"13:53:21"	"female"	84	1	5	5	1	0	806	"mignon"	"1"	"-spelling"	1
"15_1"	15	22	"right"	"Ilse"	"13:53:21"	"female"	1	1	5	5	5	1	3440	"cheveux"	"1"	"-spelling"	1
"15_1"	15	22	"right"	"Ilse"	"13:53:21"	"female"	2	5	1	1	1	1	1607	"soumon"	"1"	"-spelling"	1
"15_1"	15	22	"right"	"Ilse"	"13:53:21"	"female"	3	1	5	5	1	0	799	"cloche"	"1"	"-spelling"	1
"15_1"	15	22	"right"	"Ilse"	"13:53:21"	"female"	4	1	5	5	5	1	801	"fascine"	"1"	"-spelling"	1
"15_1"	15	22	"right"	"Ilse"	"13:53:21"	"female"	5	5	1	1	1	1	772	"huif"	"1"	"-spelling"	1
"15_1"	15	22	"right"	"Ilse"	"13:53:21"	"female"	6	1	5	5	1	0	923	"semonce"	"1"	"-spelling"	1
"15_1"	15	22	"right"	"Ilse"	"13:53:21"	"female"	7	1	5	5	1	0	744	"canoter "	"1"	"-spelling"	1
"15_1"	15	22	"right"	"Ilse"	"13:53:21"	"female"	8	1	5	5	1	0	1219	"infâme"	"1"	"-spelling"	1
"15_1"	15	22	"right"	"Ilse"	"13:53:21"	"female"	9	1	5	5	1	0	1436	"fourmi"	"1"	"-spelling"	1
"15_1"	15	22	"right"	"Ilse"	"13:53:21"	"female"	10	1	5	5	1	0	707	"cadenas"	"1"	"-spelling"	1
"15_1"	15	22	"right"	"Ilse"	"13:53:21"	"female"	11	1	5	5	1	0	742	"racaille"	"1"	"-spelling"	1
"15_1"	15	22	"right"	"Ilse"	"13:53:21"	"female"	12	5	1	1	5	0	922	"pourcine"	"1"	"-spelling"	1
"15_1"	15	22	"right"	"Ilse"	"13:53:21"	"female"	13	1	5	5	1	0	1358	"œillet"	"1"	"-spelling"	1
"15_1"	15	22	"right"	"Ilse"	"13:53:21"	"female"	14	5	1	1	1	1	1111	"raplaner"	"1"	"-spelling"	1
"15_1"	15	22	"right"	"Ilse"	"13:53:21"	"female"	15	5	1	1	5	0	652	"plaiser"	"1"	"-spelling"	1
"15_1"	15	22	"right"	"Ilse"	"13:53:21"	"female"	16	5	1	1	5	0	761	"cerveler"	"1"	"-spelling"	1
"15_1"	15	22	"right"	"Ilse"	"13:53:21"	"female"	17	5	1	1	5	0	704	"endifier"	"1"	"-spelling"	1
"15_1"	15	22	"right"	"Ilse"	"13:53:21"	"female"	59	1	5	5	1	0	875	"lanière"	"1"	"-spelling"	1
"15_1"	15	22	"right"	"Ilse"	"13:53:21"	"female"	60	5	1	1	1	1	725	"honteur"	"1"	"-spelling"	1
"15_1"	15	22	"right"	"Ilse"	"13:53:21"	"female"	61	1	5	5	5	1	1230	"abêtir"	"1"	"-spelling"	1
"15_1"	15	22	"right"	"Ilse"	"13:53:21"	"female"	21	5	1	1	1	1	881	"metter"	"1"	"-spelling"	1
"15_1"	15	22	"right"	"Ilse"	"13:53:21"	"female"	22	1	5	5	1	0	633	"fosse"	"1"	"-spelling"	1
"15_1"	15	22	"right"	"Ilse"	"13:53:21"	"female"	23	1	5	5	1	0	663	"inciter"	"1"	"-spelling"	1
"15_1"	15	22	"right"	"Ilse"	"13:53:21"	"female"	24	1	5	5	1	0	692	"salière"	"1"	"-spelling"	1
"15_1"	15	22	"right"	"Ilse"	"13:53:21"	"female"	25	1	5	5	1	0	1235	"fouet"	"1"	"-spelling"	1
"15_1"	15	22	"right"	"Ilse"	"13:53:21"	"female"	26	5	1	1	1	1	906	"cessure"	"1"	"-spelling"	1
"15_1"	15	22	"right"	"Ilse"	"13:53:21"	"female"	27	1	5	5	5	1	950	"clouer"	"1"	"-spelling"	1
"15_1"	15	22	"right"	"Ilse"	"13:53:21"	"female"	28	1	5	5	1	0	948	"mappemonde"	"1"	"-spelling"	1
"15_1"	15	22	"right"	"Ilse"	"13:53:21"	"female"	29	5	1	1	5	0	1576	"gloque"	"1"	"-spelling"	1
"15_1"	15	22	"right"	"Ilse"	"13:53:21"	"female"	71	5	1	1	5	0	884	"agire"	"1"	"-spelling"	1
"15_1"	15	22	"right"	"Ilse"	"13:53:21"	"female"	72	1	5	5	1	0	1021	"éventail"	"1"	"-spelling"	1
"15_1"	15	22	"right"	"Ilse"	"13:53:21"	"female"	73	5	1	1	5	0	1102	"boutard"	"1"	"-spelling"	1
"15_1"	15	22	"right"	"Ilse"	"13:53:21"	"female"	74	1	5	5	5	1	1032	"panier"	"1"	"-spelling"	1
"15_1"	15	22	"right"	"Ilse"	"13:53:21"	"female"	75	1	5	5	1	0	1232	"citrouille"	"1"	"-spelling"	1
"15_1"	15	22	"right"	"Ilse"	"13:53:21"	"female"	76	1	5	5	5	1	1917	"bouilloire"	"1"	"-spelling"	1
"15_1"	15	22	"right"	"Ilse"	"13:53:21"	"female"	77	5	1	1	5	0	739	"parir"	"1"	"-spelling"	1
"15_1"	15	22	"right"	"Ilse"	"13:53:21"	"female"	38	1	5	5	1	0	1363	"hache"	"1"	"-spelling"	1
"15_1"	15	22	"right"	"Ilse"	"13:53:21"	"female"	39	5	1	1	1	1	1777	"parchance"	"1"	"-spelling"	1
"15_1"	15	22	"right"	"Ilse"	"13:53:21"	"female"	40	1	5	5	1	0	1283	"pinceau"	"1"	"-spelling"	1
"15_1"	15	22	"right"	"Ilse"	"13:53:21"	"female"	41	1	5	5	5	1	526	"poisson"	"1"	"-spelling"	1
"15_1"	15	22	"right"	"Ilse"	"13:53:21"	"female"	18	5	1	1	1	1	3935	"jamain"	"1"	"-spelling"	1
"15_1"	15	22	"right"	"Ilse"	"13:53:21"	"female"	19	1	5	5	1	0	739	"ennemi"	"1"	"-spelling"	1
"15_1"	15	22	"right"	"Ilse"	"13:53:21"	"female"	20	1	5	5	1	0	847	"pouce"	"1"	"-spelling"	1
"15_1"	15	22	"right"	"Ilse"	"13:53:21"	"female"	30	1	5	5	5	1	950	"lézard"	"1"	"-spelling"	1
"15_1"	15	22	"right"	"Ilse"	"13:53:21"	"female"	80	1	5	5	1	0	673	"tanin"	"1"	"-spelling"	1
"15_1"	15	22	"right"	"Ilse"	"13:53:21"	"female"	31	5	1	1	5	0	830	"sacher"	"1"	"-spelling"	1
"15_1"	15	22	"right"	"Ilse"	"13:53:21"	"female"	78	1	5	5	5	1	787	"remporter"	"1"	"-spelling"	1
"15_1"	15	22	"right"	"Ilse"	"13:53:21"	"female"	34	5	1	1	5	0	971	"écouce"	"1"	"-spelling"	1
"15_1"	15	22	"right"	"Ilse"	"13:53:21"	"female"	32	1	5	5	1	0	1010	"nouer"	"1"	"-spelling"	1
"15_1"	15	22	"right"	"Ilse"	"13:53:21"	"female"	79	5	1	1	1	1	1042	"procoreux"	"1"	"-spelling"	1
"15_1"	15	22	"right"	"Ilse"	"13:53:21"	"female"	33	1	5	5	1	0	1526	"occire"	"1"	"-spelling"	1
"17_1"	17	20	"right"	"Nadia"	"17:15:22"	"female"	45	5	1	1	5	0	791	"retruire"	"1"	"-spelling"	1
"17_1"	17	20	"right"	"Nadia"	"17:15:22"	"female"	46	1	5	5	5	1	687	"crayon"	"1"	"-spelling"	1
"17_1"	17	20	"right"	"Nadia"	"17:15:22"	"female"	49	1	5	5	5	1	431	"marteau"	"1"	"-spelling"	1
"17_1"	17	20	"right"	"Nadia"	"17:15:22"	"female"	50	1	5	5	5	1	328	"esquif"	"1"	"-spelling"	1
"17_1"	17	20	"right"	"Nadia"	"17:15:22"	"female"	51	1	5	5	5	1	373	"treillage"	"1"	"-spelling"	1
"17_1"	17	20	"right"	"Nadia"	"17:15:22"	"female"	43	1	5	5	5	1	466	"amadouer"	"1"	"-spelling"	1
"17_1"	17	20	"right"	"Nadia"	"17:15:22"	"female"	44	1	5	5	1	0	3856	"peigne"	"1"	"-spelling"	1
"17_1"	17	20	"right"	"Nadia"	"17:15:22"	"female"	19	1	5	5	5	1	324	"ennemi"	"1"	"-spelling"	1
"17_1"	17	20	"right"	"Nadia"	"17:15:22"	"female"	20	1	5	5	5	1	415	"pouce"	"1"	"-spelling"	1
"17_1"	17	20	"right"	"Nadia"	"17:15:22"	"female"	47	5	1	1	5	0	484	"sentuelle"	"1"	"-spelling"	1
"17_1"	17	20	"right"	"Nadia"	"17:15:22"	"female"	48	1	5	5	5	1	435	"alourdir"	"1"	"-spelling"	1
"17_1"	17	20	"right"	"Nadia"	"17:15:22"	"female"	23	1	5	5	5	1	313	"inciter"	"1"	"-spelling"	1
"17_1"	17	20	"right"	"Nadia"	"17:15:22"	"female"	24	1	5	5	5	1	565	"salière"	"1"	"-spelling"	1
"17_1"	17	20	"right"	"Nadia"	"17:15:22"	"female"	25	1	5	5	5	1	452	"fouet"	"1"	"-spelling"	1
"17_1"	17	20	"right"	"Nadia"	"17:15:22"	"female"	52	1	5	5	5	1	312	"dauphin"	"1"	"-spelling"	1
"17_1"	17	20	"right"	"Nadia"	"17:15:22"	"female"	53	1	5	5	5	1	5412	"orgueil"	"1"	"-spelling"	1
"17_1"	17	20	"right"	"Nadia"	"17:15:22"	"female"	41	1	5	5	5	1	366	"poisson"	"1"	"-spelling"	1
"17_1"	17	20	"right"	"Nadia"	"17:15:22"	"female"	42	1	5	5	5	1	549	"robinet"	"1"	"-spelling"	1
"17_1"	17	20	"right"	"Nadia"	"17:15:22"	"female"	17	5	1	1	5	0	638	"endifier"	"1"	"-spelling"	1
"17_1"	17	20	"right"	"Nadia"	"17:15:22"	"female"	18	5	1	1	5	0	611	"jamain"	"1"	"-spelling"	1
"17_1"	17	20	"right"	"Nadia"	"17:15:22"	"female"	30	1	5	5	5	1	1096	"lézard"	"1"	"-spelling"	1
"17_1"	17	20	"right"	"Nadia"	"17:15:22"	"female"	31	5	1	1	5	0	877	"sacher"	"1"	"-spelling"	1
"17_1"	17	20	"right"	"Nadia"	"17:15:22"	"female"	21	5	1	1	5	0	671	"metter"	"1"	"-spelling"	1
"17_1"	17	20	"right"	"Nadia"	"17:15:22"	"female"	22	1	5	5	5	1	389	"fosse"	"1"	"-spelling"	1
"17_1"	17	20	"right"	"Nadia"	"17:15:22"	"female"	35	5	1	1	5	0	672	"osseaux"	"1"	"-spelling"	1
"17_1"	17	20	"right"	"Nadia"	"17:15:22"	"female"	36	5	1	1	5	0	654	"rejoute"	"1"	"-spelling"	1
"17_1"	17	20	"right"	"Nadia"	"17:15:22"	"female"	37	1	5	5	5	1	1952	"escroc"	"1"	"-spelling"	1
"17_1"	17	20	"right"	"Nadia"	"17:15:22"	"female"	38	1	5	5	5	1	597	"hache"	"1"	"-spelling"	1
"17_1"	17	20	"right"	"Nadia"	"17:15:22"	"female"	39	5	1	1	5	0	630	"parchance"	"1"	"-spelling"	1
"17_1"	17	20	"right"	"Nadia"	"17:15:22"	"female"	40	1	5	5	5	1	602	"pinceau"	"1"	"-spelling"	1
"17_1"	17	20	"right"	"Nadia"	"17:15:22"	"female"	1	1	5	5	5	1	2489	"cheveux"	"1"	"-spelling"	1
"17_1"	17	20	"right"	"Nadia"	"17:15:22"	"female"	2	5	1	1	5	0	1046	"soumon"	"1"	"-spelling"	1
"17_1"	17	20	"right"	"Nadia"	"17:15:22"	"female"	3	1	5	5	5	1	662	"cloche"	"1"	"-spelling"	1
"17_1"	17	20	"right"	"Nadia"	"17:15:22"	"female"	4	1	5	5	5	1	955	"fascine"	"1"	"-spelling"	1
"17_1"	17	20	"right"	"Nadia"	"17:15:22"	"female"	5	5	1	1	5	0	2190	"huif"	"1"	"-spelling"	1
"17_1"	17	20	"right"	"Nadia"	"17:15:22"	"female"	6	1	5	5	1	0	1444	"semonce"	"1"	"-spelling"	1
"17_1"	17	20	"right"	"Nadia"	"17:15:22"	"female"	7	1	5	5	1	0	1546	"canoter "	"1"	"-spelling"	1
"17_1"	17	20	"right"	"Nadia"	"17:15:22"	"female"	8	1	5	5	5	1	1632	"infâme"	"1"	"-spelling"	1
"17_1"	17	20	"right"	"Nadia"	"17:15:22"	"female"	9	1	5	5	5	1	673	"fourmi"	"1"	"-spelling"	1
"17_1"	17	20	"right"	"Nadia"	"17:15:22"	"female"	10	1	5	5	1	0	1750	"cadenas"	"1"	"-spelling"	1
"17_1"	17	20	"right"	"Nadia"	"17:15:22"	"female"	11	1	5	5	1	0	1116	"racaille"	"1"	"-spelling"	1
"17_1"	17	20	"right"	"Nadia"	"17:15:22"	"female"	12	5	1	1	5	0	678	"pourcine"	"1"	"-spelling"	1
"17_1"	17	20	"right"	"Nadia"	"17:15:22"	"female"	13	1	5	5	5	1	1630	"œillet"	"1"	"-spelling"	1
"17_1"	17	20	"right"	"Nadia"	"17:15:22"	"female"	14	5	1	1	5	0	832	"raplaner"	"1"	"-spelling"	1
"17_1"	17	20	"right"	"Nadia"	"17:15:22"	"female"	15	5	1	1	5	0	480	"plaiser"	"1"	"-spelling"	1
"17_1"	17	20	"right"	"Nadia"	"17:15:22"	"female"	16	5	1	1	5	0	675	"cerveler"	"1"	"-spelling"	1
"17_1"	17	20	"right"	"Nadia"	"17:15:22"	"female"	55	1	5	5	5	1	810	"cintre"	"1"	"-spelling"	1
"17_1"	17	20	"right"	"Nadia"	"17:15:22"	"female"	56	1	5	5	5	1	1137	"chameau"	"1"	"-spelling"	1
"17_1"	17	20	"right"	"Nadia"	"17:15:22"	"female"	57	1	5	5	5	1	542	"bouton"	"1"	"-spelling"	1
"17_1"	17	20	"right"	"Nadia"	"17:15:22"	"female"	58	1	5	5	1	0	1407	"capeline"	"1"	"-spelling"	1
"17_1"	17	20	"right"	"Nadia"	"17:15:22"	"female"	59	1	5	5	5	1	721	"lanière"	"1"	"-spelling"	1
"17_1"	17	20	"right"	"Nadia"	"17:15:22"	"female"	60	5	1	1	5	0	800	"honteur"	"1"	"-spelling"	1
"17_1"	17	20	"right"	"Nadia"	"17:15:22"	"female"	61	1	5	5	5	1	988	"abêtir"	"1"	"-spelling"	1
"17_1"	17	20	"right"	"Nadia"	"17:15:22"	"female"	62	1	5	5	5	1	538	"fenêtre"	"1"	"-spelling"	1
"17_1"	17	20	"right"	"Nadia"	"17:15:22"	"female"	63	1	5	5	1	0	1774	"écureuil "	"1"	"-spelling"	1
"17_1"	17	20	"right"	"Nadia"	"17:15:22"	"female"	64	1	5	5	5	1	784	"caddie"	"1"	"-spelling"	1
"17_1"	17	20	"right"	"Nadia"	"17:15:22"	"female"	26	5	1	1	5	0	773	"cessure"	"1"	"-spelling"	1
"17_1"	17	20	"right"	"Nadia"	"17:15:22"	"female"	27	1	5	5	5	1	365	"clouer"	"1"	"-spelling"	1
"17_1"	17	20	"right"	"Nadia"	"17:15:22"	"female"	28	1	5	5	5	1	663	"mappemonde"	"1"	"-spelling"	1
"17_1"	17	20	"right"	"Nadia"	"17:15:22"	"female"	29	5	1	1	5	0	1037	"gloque"	"1"	"-spelling"	1
"17_1"	17	20	"right"	"Nadia"	"17:15:22"	"female"	69	1	5	5	5	1	556	"vicelard"	"1"	"-spelling"	1
"17_1"	17	20	"right"	"Nadia"	"17:15:22"	"female"	70	5	1	1	5	0	582	"joueux"	"1"	"-spelling"	1
"17_1"	17	20	"right"	"Nadia"	"17:15:22"	"female"	32	1	5	5	5	1	538	"nouer"	"1"	"-spelling"	1
"17_1"	17	20	"right"	"Nadia"	"17:15:22"	"female"	33	1	5	5	5	1	771	"occire"	"1"	"-spelling"	1
"17_1"	17	20	"right"	"Nadia"	"17:15:22"	"female"	34	5	1	1	5	0	670	"écouce"	"1"	"-spelling"	1
"17_1"	17	20	"right"	"Nadia"	"17:15:22"	"female"	73	5	1	1	5	0	403	"boutard"	"1"	"-spelling"	1
"17_1"	17	20	"right"	"Nadia"	"17:15:22"	"female"	74	1	5	5	5	1	465	"panier"	"1"	"-spelling"	1
"17_1"	17	20	"right"	"Nadia"	"17:15:22"	"female"	75	1	5	5	5	1	771	"citrouille"	"1"	"-spelling"	1
"17_1"	17	20	"right"	"Nadia"	"17:15:22"	"female"	76	1	5	5	5	1	677	"bouilloire"	"1"	"-spelling"	1
"17_1"	17	20	"right"	"Nadia"	"17:15:22"	"female"	77	5	1	1	5	0	447	"parir"	"1"	"-spelling"	1
"17_1"	17	20	"right"	"Nadia"	"17:15:22"	"female"	78	1	5	5	5	1	342	"remporter"	"1"	"-spelling"	1
"17_1"	17	20	"right"	"Nadia"	"17:15:22"	"female"	79	5	1	1	5	0	284	"procoreux"	"1"	"-spelling"	1
"17_1"	17	20	"right"	"Nadia"	"17:15:22"	"female"	80	1	5	5	1	0	1973	"tanin"	"1"	"-spelling"	1
"17_1"	17	20	"right"	"Nadia"	"17:15:22"	"female"	81	1	5	5	5	1	541	"église"	"1"	"-spelling"	1
"17_1"	17	20	"right"	"Nadia"	"17:15:22"	"female"	82	1	5	5	5	1	371	"indicible"	"1"	"-spelling"	1
"17_1"	17	20	"right"	"Nadia"	"17:15:22"	"female"	83	5	1	1	5	0	355	"réporce"	"1"	"-spelling"	1
"17_1"	17	20	"right"	"Nadia"	"17:15:22"	"female"	84	1	5	5	5	1	453	"mignon"	"1"	"-spelling"	1
"17_1"	17	20	"right"	"Nadia"	"17:15:22"	"female"	71	5	1	1	5	0	618	"agire"	"1"	"-spelling"	1
"17_1"	17	20	"right"	"Nadia"	"17:15:22"	"female"	72	1	5	5	5	1	322	"éventail"	"1"	"-spelling"	1
"17_1"	17	20	"right"	"Nadia"	"17:15:22"	"female"	65	5	1	1	5	0	665	"détume"	"1"	"-spelling"	1
"17_1"	17	20	"right"	"Nadia"	"17:15:22"	"female"	66	5	1	1	5	0	489	"oeuiller"	"1"	"-spelling"	1
"17_1"	17	20	"right"	"Nadia"	"17:15:22"	"female"	54	1	5	5	1	0	2031	"amorce"	"1"	"-spelling"	1
"17_1"	17	20	"right"	"Nadia"	"17:15:22"	"female"	68	5	1	1	5	0	681	"prioche"	"1"	"-spelling"	1
"17_1"	17	20	"right"	"Nadia"	"17:15:22"	"female"	67	1	5	5	1	0	1033	"balai"	"1"	"-spelling"	1
"19_1"	19	18	"right"	"Tijl"	"14:51:49"	"female"	45	5	1	1	1	1	1783	"retruire"	"1"	"-spelling"	1
"19_1"	19	18	"right"	"Tijl"	"14:51:49"	"female"	46	1	5	5	5	1	712	"crayon"	"1"	"-spelling"	1
"19_1"	19	18	"right"	"Tijl"	"14:51:49"	"female"	47	5	1	1	5	0	907	"sentuelle"	"1"	"-spelling"	1
"19_1"	19	18	"right"	"Tijl"	"14:51:49"	"female"	55	1	5	5	5	1	1020	"cintre"	"1"	"-spelling"	1
"19_1"	19	18	"right"	"Tijl"	"14:51:49"	"female"	56	1	5	5	5	1	1036	"chameau"	"1"	"-spelling"	1
"19_1"	19	18	"right"	"Tijl"	"14:51:49"	"female"	57	1	5	5	5	1	2879	"bouton"	"1"	"-spelling"	1
"19_1"	19	18	"right"	"Tijl"	"14:51:49"	"female"	48	1	5	5	1	0	1619	"alourdir"	"1"	"-spelling"	1
"19_1"	19	18	"right"	"Tijl"	"14:51:49"	"female"	44	1	5	5	1	0	1347	"peigne"	"1"	"-spelling"	1
"19_1"	19	18	"right"	"Tijl"	"14:51:49"	"female"	60	5	1	1	5	0	905	"honteur"	"1"	"-spelling"	1
"19_1"	19	18	"right"	"Tijl"	"14:51:49"	"female"	61	1	5	5	1	0	1039	"abêtir"	"1"	"-spelling"	1
"19_1"	19	18	"right"	"Tijl"	"14:51:49"	"female"	43	1	5	5	5	1	1315	"amadouer"	"1"	"-spelling"	1
"19_1"	19	18	"right"	"Tijl"	"14:51:49"	"female"	63	1	5	5	1	0	1069	"écureuil "	"1"	"-spelling"	1
"19_1"	19	18	"right"	"Tijl"	"14:51:49"	"female"	49	1	5	5	5	1	1028	"marteau"	"1"	"-spelling"	1
"19_1"	19	18	"right"	"Tijl"	"14:51:49"	"female"	50	1	5	5	1	0	1331	"esquif"	"1"	"-spelling"	1
"19_1"	19	18	"right"	"Tijl"	"14:51:49"	"female"	62	1	5	5	1	0	3601	"fenêtre"	"1"	"-spelling"	1
"19_1"	19	18	"right"	"Tijl"	"14:51:49"	"female"	54	1	5	5	1	0	1483	"amorce"	"1"	"-spelling"	1
"19_1"	19	18	"right"	"Tijl"	"14:51:49"	"female"	26	5	1	1	1	1	2890	"cessure"	"1"	"-spelling"	1
"19_1"	19	18	"right"	"Tijl"	"14:51:49"	"female"	27	1	5	5	5	1	654	"clouer"	"1"	"-spelling"	1
"19_1"	19	18	"right"	"Tijl"	"14:51:49"	"female"	28	1	5	5	1	0	1020	"mappemonde"	"1"	"-spelling"	1
"19_1"	19	18	"right"	"Tijl"	"14:51:49"	"female"	58	1	5	5	1	0	970	"capeline"	"1"	"-spelling"	1
"19_1"	19	18	"right"	"Tijl"	"14:51:49"	"female"	59	1	5	5	5	1	1681	"lanière"	"1"	"-spelling"	1
"19_1"	19	18	"right"	"Tijl"	"14:51:49"	"female"	73	5	1	1	5	0	1665	"boutard"	"1"	"-spelling"	1
"19_1"	19	18	"right"	"Tijl"	"14:51:49"	"female"	74	1	5	5	1	0	1067	"panier"	"1"	"-spelling"	1
"19_1"	19	18	"right"	"Tijl"	"14:51:49"	"female"	75	1	5	5	5	1	1607	"citrouille"	"1"	"-spelling"	1
"19_1"	19	18	"right"	"Tijl"	"14:51:49"	"female"	76	1	5	5	5	1	921	"bouilloire"	"1"	"-spelling"	1
"19_1"	19	18	"right"	"Tijl"	"14:51:49"	"female"	77	5	1	1	1	1	849	"parir"	"1"	"-spelling"	1
"19_1"	19	18	"right"	"Tijl"	"14:51:49"	"female"	78	1	5	5	1	0	1012	"remporter"	"1"	"-spelling"	1
"19_1"	19	18	"right"	"Tijl"	"14:51:49"	"female"	79	5	1	1	1	1	1736	"procoreux"	"1"	"-spelling"	1
"19_1"	19	18	"right"	"Tijl"	"14:51:49"	"female"	80	1	5	5	5	1	1208	"tanin"	"1"	"-spelling"	1
"19_1"	19	18	"right"	"Tijl"	"14:51:49"	"female"	81	1	5	5	5	1	694	"église"	"1"	"-spelling"	1
"19_1"	19	18	"right"	"Tijl"	"14:51:49"	"female"	82	1	5	5	5	1	2725	"indicible"	"1"	"-spelling"	1
"19_1"	19	18	"right"	"Tijl"	"14:51:49"	"female"	83	5	1	1	5	0	1170	"réporce"	"1"	"-spelling"	1
"19_1"	19	18	"right"	"Tijl"	"14:51:49"	"female"	84	1	5	5	1	0	1092	"mignon"	"1"	"-spelling"	1
"19_1"	19	18	"right"	"Tijl"	"14:51:49"	"female"	1	1	5	5	1	0	6635	"cheveux"	"1"	"-spelling"	1
"19_1"	19	18	"right"	"Tijl"	"14:51:49"	"female"	2	5	1	1	1	1	1281	"soumon"	"1"	"-spelling"	1
"19_1"	19	18	"right"	"Tijl"	"14:51:49"	"female"	3	1	5	5	5	1	1211	"cloche"	"1"	"-spelling"	1
"19_1"	19	18	"right"	"Tijl"	"14:51:49"	"female"	4	1	5	5	1	0	1049	"fascine"	"1"	"-spelling"	1
"19_1"	19	18	"right"	"Tijl"	"14:51:49"	"female"	5	5	1	1	1	1	1693	"huif"	"1"	"-spelling"	1
"19_1"	19	18	"right"	"Tijl"	"14:51:49"	"female"	6	1	5	5	5	1	1969	"semonce"	"1"	"-spelling"	1
"19_1"	19	18	"right"	"Tijl"	"14:51:49"	"female"	7	1	5	5	1	0	1399	"canoter "	"1"	"-spelling"	1
"19_1"	19	18	"right"	"Tijl"	"14:51:49"	"female"	8	1	5	5	5	1	2795	"infâme"	"1"	"-spelling"	1
"19_1"	19	18	"right"	"Tijl"	"14:51:49"	"female"	51	1	5	5	5	1	1321	"treillage"	"1"	"-spelling"	1
"19_1"	19	18	"right"	"Tijl"	"14:51:49"	"female"	52	1	5	5	5	1	1473	"dauphin"	"1"	"-spelling"	1
"19_1"	19	18	"right"	"Tijl"	"14:51:49"	"female"	53	1	5	5	5	1	2714	"orgueil"	"1"	"-spelling"	1
"19_1"	19	18	"right"	"Tijl"	"14:51:49"	"female"	12	5	1	1	5	0	845	"pourcine"	"1"	"-spelling"	1
"19_1"	19	18	"right"	"Tijl"	"14:51:49"	"female"	13	1	5	5	5	1	3664	"œillet"	"1"	"-spelling"	1
"19_1"	19	18	"right"	"Tijl"	"14:51:49"	"female"	14	5	1	1	1	1	1619	"raplaner"	"1"	"-spelling"	1
"19_1"	19	18	"right"	"Tijl"	"14:51:49"	"female"	15	5	1	1	5	0	805	"plaiser"	"1"	"-spelling"	1
"19_1"	19	18	"right"	"Tijl"	"14:51:49"	"female"	16	5	1	1	5	0	1046	"cerveler"	"1"	"-spelling"	1
"19_1"	19	18	"right"	"Tijl"	"14:51:49"	"female"	17	5	1	1	1	1	1538	"endifier"	"1"	"-spelling"	1
"19_1"	19	18	"right"	"Tijl"	"14:51:49"	"female"	18	5	1	1	5	0	628	"jamain"	"1"	"-spelling"	1
"19_1"	19	18	"right"	"Tijl"	"14:51:49"	"female"	19	1	5	5	1	0	991	"ennemi"	"1"	"-spelling"	1
"19_1"	19	18	"right"	"Tijl"	"14:51:49"	"female"	20	1	5	5	5	1	745	"pouce"	"1"	"-spelling"	1
"19_1"	19	18	"right"	"Tijl"	"14:51:49"	"female"	64	1	5	5	5	1	2575	"caddie"	"1"	"-spelling"	1
"19_1"	19	18	"right"	"Tijl"	"14:51:49"	"female"	65	5	1	1	1	1	1579	"détume"	"1"	"-spelling"	1
"19_1"	19	18	"right"	"Tijl"	"14:51:49"	"female"	66	5	1	1	5	0	2249	"oeuiller"	"1"	"-spelling"	1
"19_1"	19	18	"right"	"Tijl"	"14:51:49"	"female"	67	1	5	5	1	0	2797	"balai"	"1"	"-spelling"	1
"19_1"	19	18	"right"	"Tijl"	"14:51:49"	"female"	68	5	1	1	5	0	781	"prioche"	"1"	"-spelling"	1
"19_1"	19	18	"right"	"Tijl"	"14:51:49"	"female"	69	1	5	5	1	0	993	"vicelard"	"1"	"-spelling"	1
"19_1"	19	18	"right"	"Tijl"	"14:51:49"	"female"	29	5	1	1	5	0	770	"gloque"	"1"	"-spelling"	1
"19_1"	19	18	"right"	"Tijl"	"14:51:49"	"female"	30	1	5	5	5	1	1675	"lézard"	"1"	"-spelling"	1
"19_1"	19	18	"right"	"Tijl"	"14:51:49"	"female"	31	5	1	1	5	0	844	"sacher"	"1"	"-spelling"	1
"19_1"	19	18	"right"	"Tijl"	"14:51:49"	"female"	32	1	5	5	5	1	1069	"nouer"	"1"	"-spelling"	1
"19_1"	19	18	"right"	"Tijl"	"14:51:49"	"female"	33	1	5	5	5	1	1200	"occire"	"1"	"-spelling"	1
"19_1"	19	18	"right"	"Tijl"	"14:51:49"	"female"	34	5	1	1	1	1	1903	"écouce"	"1"	"-spelling"	1
"19_1"	19	18	"right"	"Tijl"	"14:51:49"	"female"	35	5	1	1	5	0	2023	"osseaux"	"1"	"-spelling"	1
"19_1"	19	18	"right"	"Tijl"	"14:51:49"	"female"	36	5	1	1	1	1	2180	"rejoute"	"1"	"-spelling"	1
"19_1"	19	18	"right"	"Tijl"	"14:51:49"	"female"	37	1	5	5	5	1	1652	"escroc"	"1"	"-spelling"	1
"19_1"	19	18	"right"	"Tijl"	"14:51:49"	"female"	38	1	5	5	1	0	704	"hache"	"1"	"-spelling"	1
"19_1"	19	18	"right"	"Tijl"	"14:51:49"	"female"	39	5	1	1	5	0	1108	"parchance"	"1"	"-spelling"	1
"19_1"	19	18	"right"	"Tijl"	"14:51:49"	"female"	40	1	5	5	5	1	1456	"pinceau"	"1"	"-spelling"	1
"19_1"	19	18	"right"	"Tijl"	"14:51:49"	"female"	41	1	5	5	5	1	3107	"poisson"	"1"	"-spelling"	1
"19_1"	19	18	"right"	"Tijl"	"14:51:49"	"female"	42	1	5	5	5	1	1338	"robinet"	"1"	"-spelling"	1
"19_1"	19	18	"right"	"Tijl"	"14:51:49"	"female"	70	5	1	1	5	0	568	"joueux"	"1"	"-spelling"	1
"19_1"	19	18	"right"	"Tijl"	"14:51:49"	"female"	71	5	1	1	5	0	965	"agire"	"1"	"-spelling"	1
"19_1"	19	18	"right"	"Tijl"	"14:51:49"	"female"	72	1	5	5	1	0	2232	"éventail"	"1"	"-spelling"	1
"19_1"	19	18	"right"	"Tijl"	"14:51:49"	"female"	21	5	1	1	5	0	2547	"metter"	"1"	"-spelling"	1
"19_1"	19	18	"right"	"Tijl"	"14:51:49"	"female"	9	1	5	5	1	0	4157	"fourmi"	"1"	"-spelling"	1
"19_1"	19	18	"right"	"Tijl"	"14:51:49"	"female"	10	1	5	5	1	0	2288	"cadenas"	"1"	"-spelling"	1
"19_1"	19	18	"right"	"Tijl"	"14:51:49"	"female"	11	1	5	5	5	1	1039	"racaille"	"1"	"-spelling"	1
"19_1"	19	18	"right"	"Tijl"	"14:51:49"	"female"	25	1	5	5	5	1	1249	"fouet"	"1"	"-spelling"	1
"19_1"	19	18	"right"	"Tijl"	"14:51:49"	"female"	22	1	5	5	5	1	819	"fosse"	"1"	"-spelling"	1
"19_1"	19	18	"right"	"Tijl"	"14:51:49"	"female"	23	1	5	5	5	1	1123	"inciter"	"1"	"-spelling"	1
"19_1"	19	18	"right"	"Tijl"	"14:51:49"	"female"	24	1	5	5	5	1	741	"salière"	"1"	"-spelling"	1
"21_1"	21	21	"right"	"Jens"	"11:45:28"	"female"	9	1	5	5	1	0	1023	"fourmi"	"1"	"-spelling"	1
"21_1"	21	21	"right"	"Jens"	"11:45:28"	"female"	43	1	5	5	5	1	1059	"amadouer"	"1"	"-spelling"	1
"21_1"	21	21	"right"	"Jens"	"11:45:28"	"female"	12	5	1	1	5	0	850	"pourcine"	"1"	"-spelling"	1
"21_1"	21	21	"right"	"Jens"	"11:45:28"	"female"	13	1	5	5	1	0	1050	"œillet"	"1"	"-spelling"	1
"21_1"	21	21	"right"	"Jens"	"11:45:28"	"female"	10	1	5	5	1	0	1112	"cadenas"	"1"	"-spelling"	1
"21_1"	21	21	"right"	"Jens"	"11:45:28"	"female"	44	1	5	5	1	0	913	"peigne"	"1"	"-spelling"	1
"21_1"	21	21	"right"	"Jens"	"11:45:28"	"female"	45	5	1	1	1	1	841	"retruire"	"1"	"-spelling"	1
"21_1"	21	21	"right"	"Jens"	"11:45:28"	"female"	14	5	1	1	1	1	1002	"raplaner"	"1"	"-spelling"	1
"21_1"	21	21	"right"	"Jens"	"11:45:28"	"female"	15	5	1	1	5	0	788	"plaiser"	"1"	"-spelling"	1
"21_1"	21	21	"right"	"Jens"	"11:45:28"	"female"	7	1	5	5	1	0	1289	"canoter "	"1"	"-spelling"	1
"21_1"	21	21	"right"	"Jens"	"11:45:28"	"female"	8	1	5	5	5	1	752	"infâme"	"1"	"-spelling"	1
"21_1"	21	21	"right"	"Jens"	"11:45:28"	"female"	21	5	1	1	1	1	950	"metter"	"1"	"-spelling"	1
"21_1"	21	21	"right"	"Jens"	"11:45:28"	"female"	22	1	5	5	1	0	828	"fosse"	"1"	"-spelling"	1
"21_1"	21	21	"right"	"Jens"	"11:45:28"	"female"	11	1	5	5	5	1	917	"racaille"	"1"	"-spelling"	1
"21_1"	21	21	"right"	"Jens"	"11:45:28"	"female"	26	5	1	1	5	0	795	"cessure"	"1"	"-spelling"	1
"21_1"	21	21	"right"	"Jens"	"11:45:28"	"female"	27	1	5	5	5	1	790	"clouer"	"1"	"-spelling"	1
"21_1"	21	21	"right"	"Jens"	"11:45:28"	"female"	28	1	5	5	1	0	1964	"mappemonde"	"1"	"-spelling"	1
"21_1"	21	21	"right"	"Jens"	"11:45:28"	"female"	29	5	1	1	1	1	829	"gloque"	"1"	"-spelling"	1
"21_1"	21	21	"right"	"Jens"	"11:45:28"	"female"	30	1	5	5	1	0	1115	"lézard"	"1"	"-spelling"	1
"21_1"	21	21	"right"	"Jens"	"11:45:28"	"female"	31	5	1	1	5	0	983	"sacher"	"1"	"-spelling"	1
"21_1"	21	21	"right"	"Jens"	"11:45:28"	"female"	32	1	5	5	5	1	660	"nouer"	"1"	"-spelling"	1
"21_1"	21	21	"right"	"Jens"	"11:45:28"	"female"	33	1	5	5	1	0	713	"occire"	"1"	"-spelling"	1
"21_1"	21	21	"right"	"Jens"	"11:45:28"	"female"	34	5	1	1	5	0	927	"écouce"	"1"	"-spelling"	1
"21_1"	21	21	"right"	"Jens"	"11:45:28"	"female"	35	5	1	1	1	1	769	"osseaux"	"1"	"-spelling"	1
"21_1"	21	21	"right"	"Jens"	"11:45:28"	"female"	36	5	1	1	1	1	1692	"rejoute"	"1"	"-spelling"	1
"21_1"	21	21	"right"	"Jens"	"11:45:28"	"female"	37	1	5	5	5	1	1067	"escroc"	"1"	"-spelling"	1
"21_1"	21	21	"right"	"Jens"	"11:45:28"	"female"	38	1	5	5	1	0	1010	"hache"	"1"	"-spelling"	1
"21_1"	21	21	"right"	"Jens"	"11:45:28"	"female"	39	5	1	1	5	0	988	"parchance"	"1"	"-spelling"	1
"21_1"	21	21	"right"	"Jens"	"11:45:28"	"female"	40	1	5	5	1	0	782	"pinceau"	"1"	"-spelling"	1
"21_1"	21	21	"right"	"Jens"	"11:45:28"	"female"	41	1	5	5	5	1	705	"poisson"	"1"	"-spelling"	1
"21_1"	21	21	"right"	"Jens"	"11:45:28"	"female"	42	1	5	5	1	0	1034	"robinet"	"1"	"-spelling"	1
"21_1"	21	21	"right"	"Jens"	"11:45:28"	"female"	1	1	5	5	5	1	1448	"cheveux"	"1"	"-spelling"	1
"21_1"	21	21	"right"	"Jens"	"11:45:28"	"female"	2	5	1	1	1	1	941	"soumon"	"1"	"-spelling"	1
"21_1"	21	21	"right"	"Jens"	"11:45:28"	"female"	3	1	5	5	1	0	899	"cloche"	"1"	"-spelling"	1
"21_1"	21	21	"right"	"Jens"	"11:45:28"	"female"	4	1	5	5	1	0	976	"fascine"	"1"	"-spelling"	1
"21_1"	21	21	"right"	"Jens"	"11:45:28"	"female"	5	5	1	1	1	1	741	"huif"	"1"	"-spelling"	1
"21_1"	21	21	"right"	"Jens"	"11:45:28"	"female"	6	1	5	5	1	0	729	"semonce"	"1"	"-spelling"	1
"21_1"	21	21	"right"	"Jens"	"11:45:28"	"female"	48	1	5	5	1	0	816	"alourdir"	"1"	"-spelling"	1
"21_1"	21	21	"right"	"Jens"	"11:45:28"	"female"	49	1	5	5	5	1	979	"marteau"	"1"	"-spelling"	1
"21_1"	21	21	"right"	"Jens"	"11:45:28"	"female"	50	1	5	5	5	1	1081	"esquif"	"1"	"-spelling"	1
"21_1"	21	21	"right"	"Jens"	"11:45:28"	"female"	51	1	5	5	1	0	984	"treillage"	"1"	"-spelling"	1
"21_1"	21	21	"right"	"Jens"	"11:45:28"	"female"	52	1	5	5	1	0	936	"dauphin"	"1"	"-spelling"	1
"21_1"	21	21	"right"	"Jens"	"11:45:28"	"female"	53	1	5	5	1	0	1324	"orgueil"	"1"	"-spelling"	1
"21_1"	21	21	"right"	"Jens"	"11:45:28"	"female"	54	1	5	5	5	1	691	"amorce"	"1"	"-spelling"	1
"21_1"	21	21	"right"	"Jens"	"11:45:28"	"female"	55	1	5	5	1	0	830	"cintre"	"1"	"-spelling"	1
"21_1"	21	21	"right"	"Jens"	"11:45:28"	"female"	56	1	5	5	5	1	790	"chameau"	"1"	"-spelling"	1
"21_1"	21	21	"right"	"Jens"	"11:45:28"	"female"	16	5	1	1	5	0	819	"cerveler"	"1"	"-spelling"	1
"21_1"	21	21	"right"	"Jens"	"11:45:28"	"female"	17	5	1	1	1	1	983	"endifier"	"1"	"-spelling"	1
"21_1"	21	21	"right"	"Jens"	"11:45:28"	"female"	18	5	1	1	5	0	957	"jamain"	"1"	"-spelling"	1
"21_1"	21	21	"right"	"Jens"	"11:45:28"	"female"	19	1	5	5	1	0	993	"ennemi"	"1"	"-spelling"	1
"21_1"	21	21	"right"	"Jens"	"11:45:28"	"female"	20	1	5	5	5	1	1129	"pouce"	"1"	"-spelling"	1
"21_1"	21	21	"right"	"Jens"	"11:45:28"	"female"	62	1	5	5	5	1	717	"fenêtre"	"1"	"-spelling"	1
"21_1"	21	21	"right"	"Jens"	"11:45:28"	"female"	63	1	5	5	1	0	993	"écureuil "	"1"	"-spelling"	1
"21_1"	21	21	"right"	"Jens"	"11:45:28"	"female"	23	1	5	5	1	0	841	"inciter"	"1"	"-spelling"	1
"21_1"	21	21	"right"	"Jens"	"11:45:28"	"female"	24	1	5	5	5	1	664	"salière"	"1"	"-spelling"	1
"21_1"	21	21	"right"	"Jens"	"11:45:28"	"female"	25	1	5	5	5	1	677	"fouet"	"1"	"-spelling"	1
"21_1"	21	21	"right"	"Jens"	"11:45:28"	"female"	66	5	1	1	1	1	917	"oeuiller"	"1"	"-spelling"	1
"21_1"	21	21	"right"	"Jens"	"11:45:28"	"female"	67	1	5	5	1	0	786	"balai"	"1"	"-spelling"	1
"21_1"	21	21	"right"	"Jens"	"11:45:28"	"female"	68	5	1	1	5	0	1611	"prioche"	"1"	"-spelling"	1
"21_1"	21	21	"right"	"Jens"	"11:45:28"	"female"	69	1	5	5	1	0	660	"vicelard"	"1"	"-spelling"	1
"21_1"	21	21	"right"	"Jens"	"11:45:28"	"female"	70	5	1	1	5	0	619	"joueux"	"1"	"-spelling"	1
"21_1"	21	21	"right"	"Jens"	"11:45:28"	"female"	71	5	1	1	1	1	978	"agire"	"1"	"-spelling"	1
"21_1"	21	21	"right"	"Jens"	"11:45:28"	"female"	72	1	5	5	5	1	693	"éventail"	"1"	"-spelling"	1
"21_1"	21	21	"right"	"Jens"	"11:45:28"	"female"	73	5	1	1	5	0	791	"boutard"	"1"	"-spelling"	1
"21_1"	21	21	"right"	"Jens"	"11:45:28"	"female"	74	1	5	5	1	0	810	"panier"	"1"	"-spelling"	1
"21_1"	21	21	"right"	"Jens"	"11:45:28"	"female"	75	1	5	5	1	0	1694	"citrouille"	"1"	"-spelling"	1
"21_1"	21	21	"right"	"Jens"	"11:45:28"	"female"	76	1	5	5	5	1	1634	"bouilloire"	"1"	"-spelling"	1
"21_1"	21	21	"right"	"Jens"	"11:45:28"	"female"	77	5	1	1	1	1	744	"parir"	"1"	"-spelling"	1
"21_1"	21	21	"right"	"Jens"	"11:45:28"	"female"	78	1	5	5	1	0	966	"remporter"	"1"	"-spelling"	1
"21_1"	21	21	"right"	"Jens"	"11:45:28"	"female"	79	5	1	1	5	0	651	"procoreux"	"1"	"-spelling"	1
"21_1"	21	21	"right"	"Jens"	"11:45:28"	"female"	80	1	5	5	5	1	795	"tanin"	"1"	"-spelling"	1
"21_1"	21	21	"right"	"Jens"	"11:45:28"	"female"	81	1	5	5	5	1	912	"église"	"1"	"-spelling"	1
"21_1"	21	21	"right"	"Jens"	"11:45:28"	"female"	82	1	5	5	5	1	2943	"indicible"	"1"	"-spelling"	1
"21_1"	21	21	"right"	"Jens"	"11:45:28"	"female"	83	5	1	1	5	0	884	"réporce"	"1"	"-spelling"	1
"21_1"	21	21	"right"	"Jens"	"11:45:28"	"female"	84	1	5	5	5	1	997	"mignon"	"1"	"-spelling"	1
"21_1"	21	21	"right"	"Jens"	"11:45:28"	"female"	46	1	5	5	1	0	1035	"crayon"	"1"	"-spelling"	1
"21_1"	21	21	"right"	"Jens"	"11:45:28"	"female"	47	5	1	1	5	0	1110	"sentuelle"	"1"	"-spelling"	1
"21_1"	21	21	"right"	"Jens"	"11:45:28"	"female"	61	1	5	5	1	0	856	"abêtir"	"1"	"-spelling"	1
"21_1"	21	21	"right"	"Jens"	"11:45:28"	"female"	65	5	1	1	5	0	780	"détume"	"1"	"-spelling"	1
"21_1"	21	21	"right"	"Jens"	"11:45:28"	"female"	58	1	5	5	1	0	972	"capeline"	"1"	"-spelling"	1
"21_1"	21	21	"right"	"Jens"	"11:45:28"	"female"	59	1	5	5	5	1	933	"lanière"	"1"	"-spelling"	1
"21_1"	21	21	"right"	"Jens"	"11:45:28"	"female"	64	1	5	5	1	0	840	"caddie"	"1"	"-spelling"	1
"21_1"	21	21	"right"	"Jens"	"11:45:28"	"female"	57	1	5	5	5	1	798	"bouton"	"1"	"-spelling"	1
"21_1"	21	21	"right"	"Jens"	"11:45:28"	"female"	60	5	1	1	1	1	1027	"honteur"	"1"	"-spelling"	1
"23_1"	23	19	"right"	"Jens"	"12:16:04"	"female"	4	1	5	5	1	0	1268	"fascine"	"1"	"-spelling"	1
"23_1"	23	19	"right"	"Jens"	"12:16:04"	"female"	5	5	1	1	1	1	931	"huif"	"1"	"-spelling"	1
"23_1"	23	19	"right"	"Jens"	"12:16:04"	"female"	6	1	5	5	5	1	1485	"semonce"	"1"	"-spelling"	1
"23_1"	23	19	"right"	"Jens"	"12:16:04"	"female"	7	1	5	5	1	0	813	"canoter "	"1"	"-spelling"	1
"23_1"	23	19	"right"	"Jens"	"12:16:04"	"female"	12	5	1	1	1	1	694	"pourcine"	"1"	"-spelling"	1
"23_1"	23	19	"right"	"Jens"	"12:16:04"	"female"	13	1	5	5	1	0	1039	"œillet"	"1"	"-spelling"	1
"23_1"	23	19	"right"	"Jens"	"12:16:04"	"female"	1	1	5	5	5	1	2942	"cheveux"	"1"	"-spelling"	1
"23_1"	23	19	"right"	"Jens"	"12:16:04"	"female"	2	5	1	1	1	1	1875	"soumon"	"1"	"-spelling"	1
"23_1"	23	19	"right"	"Jens"	"12:16:04"	"female"	3	1	5	5	5	1	2246	"cloche"	"1"	"-spelling"	1
"23_1"	23	19	"right"	"Jens"	"12:16:04"	"female"	58	1	5	5	1	0	597	"capeline"	"1"	"-spelling"	1
"23_1"	23	19	"right"	"Jens"	"12:16:04"	"female"	59	1	5	5	5	1	1187	"lanière"	"1"	"-spelling"	1
"23_1"	23	19	"right"	"Jens"	"12:16:04"	"female"	60	5	1	1	1	1	600	"honteur"	"1"	"-spelling"	1
"23_1"	23	19	"right"	"Jens"	"12:16:04"	"female"	61	1	5	5	1	0	1940	"abêtir"	"1"	"-spelling"	1
"23_1"	23	19	"right"	"Jens"	"12:16:04"	"female"	62	1	5	5	5	1	1439	"fenêtre"	"1"	"-spelling"	1
"23_1"	23	19	"right"	"Jens"	"12:16:04"	"female"	63	1	5	5	1	0	770	"écureuil "	"1"	"-spelling"	1
"23_1"	23	19	"right"	"Jens"	"12:16:04"	"female"	64	1	5	5	1	0	1102	"caddie"	"1"	"-spelling"	1
"23_1"	23	19	"right"	"Jens"	"12:16:04"	"female"	65	5	1	1	1	1	1384	"détume"	"1"	"-spelling"	1
"23_1"	23	19	"right"	"Jens"	"12:16:04"	"female"	66	5	1	1	1	1	944	"oeuiller"	"1"	"-spelling"	1
"23_1"	23	19	"right"	"Jens"	"12:16:04"	"female"	67	1	5	5	1	0	1095	"balai"	"1"	"-spelling"	1
"23_1"	23	19	"right"	"Jens"	"12:16:04"	"female"	68	5	1	1	1	1	1496	"prioche"	"1"	"-spelling"	1
"23_1"	23	19	"right"	"Jens"	"12:16:04"	"female"	69	1	5	5	1	0	797	"vicelard"	"1"	"-spelling"	1
"23_1"	23	19	"right"	"Jens"	"12:16:04"	"female"	70	5	1	1	5	0	828	"joueux"	"1"	"-spelling"	1
"23_1"	23	19	"right"	"Jens"	"12:16:04"	"female"	71	5	1	1	5	0	1019	"agire"	"1"	"-spelling"	1
"23_1"	23	19	"right"	"Jens"	"12:16:04"	"female"	72	1	5	5	1	0	678	"éventail"	"1"	"-spelling"	1
"23_1"	23	19	"right"	"Jens"	"12:16:04"	"female"	73	5	1	1	5	0	802	"boutard"	"1"	"-spelling"	1
"23_1"	23	19	"right"	"Jens"	"12:16:04"	"female"	74	1	5	5	5	1	791	"panier"	"1"	"-spelling"	1
"23_1"	23	19	"right"	"Jens"	"12:16:04"	"female"	75	1	5	5	1	0	724	"citrouille"	"1"	"-spelling"	1
"23_1"	23	19	"right"	"Jens"	"12:16:04"	"female"	76	1	5	5	1	0	1882	"bouilloire"	"1"	"-spelling"	1
"23_1"	23	19	"right"	"Jens"	"12:16:04"	"female"	77	5	1	1	1	1	902	"parir"	"1"	"-spelling"	1
"23_1"	23	19	"right"	"Jens"	"12:16:04"	"female"	78	1	5	5	5	1	1331	"remporter"	"1"	"-spelling"	1
"23_1"	23	19	"right"	"Jens"	"12:16:04"	"female"	82	1	5	5	5	1	1267	"indicible"	"1"	"-spelling"	1
"23_1"	23	19	"right"	"Jens"	"12:16:04"	"female"	83	5	1	1	1	1	973	"réporce"	"1"	"-spelling"	1
"23_1"	23	19	"right"	"Jens"	"12:16:04"	"female"	84	1	5	5	5	1	1405	"mignon"	"1"	"-spelling"	1
"23_1"	23	19	"right"	"Jens"	"12:16:04"	"female"	40	1	5	5	1	0	644	"pinceau"	"1"	"-spelling"	1
"23_1"	23	19	"right"	"Jens"	"12:16:04"	"female"	41	1	5	5	5	1	650	"poisson"	"1"	"-spelling"	1
"23_1"	23	19	"right"	"Jens"	"12:16:04"	"female"	42	1	5	5	1	0	850	"robinet"	"1"	"-spelling"	1
"23_1"	23	19	"right"	"Jens"	"12:16:04"	"female"	43	1	5	5	1	0	1444	"amadouer"	"1"	"-spelling"	1
"23_1"	23	19	"right"	"Jens"	"12:16:04"	"female"	44	1	5	5	1	0	808	"peigne"	"1"	"-spelling"	1
"23_1"	23	19	"right"	"Jens"	"12:16:04"	"female"	45	5	1	1	5	0	730	"retruire"	"1"	"-spelling"	1
"23_1"	23	19	"right"	"Jens"	"12:16:04"	"female"	46	1	5	5	5	1	1095	"crayon"	"1"	"-spelling"	1
"23_1"	23	19	"right"	"Jens"	"12:16:04"	"female"	8	1	5	5	1	0	1113	"infâme"	"1"	"-spelling"	1
"23_1"	23	19	"right"	"Jens"	"12:16:04"	"female"	9	1	5	5	1	0	1097	"fourmi"	"1"	"-spelling"	1
"23_1"	23	19	"right"	"Jens"	"12:16:04"	"female"	10	1	5	5	1	0	1056	"cadenas"	"1"	"-spelling"	1
"23_1"	23	19	"right"	"Jens"	"12:16:04"	"female"	11	1	5	5	5	1	1645	"racaille"	"1"	"-spelling"	1
"23_1"	23	19	"right"	"Jens"	"12:16:04"	"female"	53	1	5	5	1	0	1101	"orgueil"	"1"	"-spelling"	1
"23_1"	23	19	"right"	"Jens"	"12:16:04"	"female"	54	1	5	5	1	0	1262	"amorce"	"1"	"-spelling"	1
"23_1"	23	19	"right"	"Jens"	"12:16:04"	"female"	55	1	5	5	5	1	905	"cintre"	"1"	"-spelling"	1
"23_1"	23	19	"right"	"Jens"	"12:16:04"	"female"	56	1	5	5	5	1	617	"chameau"	"1"	"-spelling"	1
"23_1"	23	19	"right"	"Jens"	"12:16:04"	"female"	57	1	5	5	5	1	1500	"bouton"	"1"	"-spelling"	1
"23_1"	23	19	"right"	"Jens"	"12:16:04"	"female"	16	5	1	1	1	1	729	"cerveler"	"1"	"-spelling"	1
"23_1"	23	19	"right"	"Jens"	"12:16:04"	"female"	17	5	1	1	1	1	937	"endifier"	"1"	"-spelling"	1
"23_1"	23	19	"right"	"Jens"	"12:16:04"	"female"	18	5	1	1	5	0	828	"jamain"	"1"	"-spelling"	1
"23_1"	23	19	"right"	"Jens"	"12:16:04"	"female"	19	1	5	5	1	0	1103	"ennemi"	"1"	"-spelling"	1
"23_1"	23	19	"right"	"Jens"	"12:16:04"	"female"	20	1	5	5	5	1	708	"pouce"	"1"	"-spelling"	1
"23_1"	23	19	"right"	"Jens"	"12:16:04"	"female"	21	5	1	1	1	1	747	"metter"	"1"	"-spelling"	1
"23_1"	23	19	"right"	"Jens"	"12:16:04"	"female"	22	1	5	5	1	0	1080	"fosse"	"1"	"-spelling"	1
"23_1"	23	19	"right"	"Jens"	"12:16:04"	"female"	23	1	5	5	5	1	1654	"inciter"	"1"	"-spelling"	1
"23_1"	23	19	"right"	"Jens"	"12:16:04"	"female"	24	1	5	5	5	1	1102	"salière"	"1"	"-spelling"	1
"23_1"	23	19	"right"	"Jens"	"12:16:04"	"female"	25	1	5	5	5	1	999	"fouet"	"1"	"-spelling"	1
"23_1"	23	19	"right"	"Jens"	"12:16:04"	"female"	26	5	1	1	5	0	871	"cessure"	"1"	"-spelling"	1
"23_1"	23	19	"right"	"Jens"	"12:16:04"	"female"	27	1	5	5	1	0	856	"clouer"	"1"	"-spelling"	1
"23_1"	23	19	"right"	"Jens"	"12:16:04"	"female"	28	1	5	5	1	0	1286	"mappemonde"	"1"	"-spelling"	1
"23_1"	23	19	"right"	"Jens"	"12:16:04"	"female"	29	5	1	1	1	1	766	"gloque"	"1"	"-spelling"	1
"23_1"	23	19	"right"	"Jens"	"12:16:04"	"female"	30	1	5	5	5	1	1164	"lézard"	"1"	"-spelling"	1
"23_1"	23	19	"right"	"Jens"	"12:16:04"	"female"	31	5	1	1	1	1	979	"sacher"	"1"	"-spelling"	1
"23_1"	23	19	"right"	"Jens"	"12:16:04"	"female"	32	1	5	5	5	1	884	"nouer"	"1"	"-spelling"	1
"23_1"	23	19	"right"	"Jens"	"12:16:04"	"female"	33	1	5	5	1	0	691	"occire"	"1"	"-spelling"	1
"23_1"	23	19	"right"	"Jens"	"12:16:04"	"female"	34	5	1	1	5	0	1085	"écouce"	"1"	"-spelling"	1
"23_1"	23	19	"right"	"Jens"	"12:16:04"	"female"	35	5	1	1	1	1	747	"osseaux"	"1"	"-spelling"	1
"23_1"	23	19	"right"	"Jens"	"12:16:04"	"female"	36	5	1	1	1	1	740	"rejoute"	"1"	"-spelling"	1
"23_1"	23	19	"right"	"Jens"	"12:16:04"	"female"	79	5	1	1	1	1	1541	"procoreux"	"1"	"-spelling"	1
"23_1"	23	19	"right"	"Jens"	"12:16:04"	"female"	80	1	5	5	1	0	715	"tanin"	"1"	"-spelling"	1
"23_1"	23	19	"right"	"Jens"	"12:16:04"	"female"	81	1	5	5	1	0	1941	"église"	"1"	"-spelling"	1
"23_1"	23	19	"right"	"Jens"	"12:16:04"	"female"	39	5	1	1	5	0	1437	"parchance"	"1"	"-spelling"	1
"23_1"	23	19	"right"	"Jens"	"12:16:04"	"female"	14	5	1	1	1	1	964	"raplaner"	"1"	"-spelling"	1
"23_1"	23	19	"right"	"Jens"	"12:16:04"	"female"	15	5	1	1	5	0	844	"plaiser"	"1"	"-spelling"	1
"23_1"	23	19	"right"	"Jens"	"12:16:04"	"female"	47	5	1	1	1	1	812	"sentuelle"	"1"	"-spelling"	1
"23_1"	23	19	"right"	"Jens"	"12:16:04"	"female"	48	1	5	5	1	0	1056	"alourdir"	"1"	"-spelling"	1
"23_1"	23	19	"right"	"Jens"	"12:16:04"	"female"	49	1	5	5	1	0	1978	"marteau"	"1"	"-spelling"	1
"23_1"	23	19	"right"	"Jens"	"12:16:04"	"female"	50	1	5	5	1	0	1162	"esquif"	"1"	"-spelling"	1
"23_1"	23	19	"right"	"Jens"	"12:16:04"	"female"	51	1	5	5	5	1	996	"treillage"	"1"	"-spelling"	1
"23_1"	23	19	"right"	"Jens"	"12:16:04"	"female"	52	1	5	5	1	0	1782	"dauphin"	"1"	"-spelling"	1
"23_1"	23	19	"right"	"Jens"	"12:16:04"	"female"	38	1	5	5	1	0	923	"hache"	"1"	"-spelling"	1
"23_1"	23	19	"right"	"Jens"	"12:16:04"	"female"	37	1	5	5	1	0	1357	"escroc"	"1"	"-spelling"	1
"249_1"	249	18	"left"	"Other"	"11:23:54"	"female"	82	1	5	1	1	1	1533	"indicible"	"1"	"-spelling"	1
"249_1"	249	18	"left"	"Other"	"11:23:54"	"female"	9	1	5	1	1	1	858	"fourmi"	"1"	"-spelling"	1
"249_1"	249	18	"left"	"Other"	"11:23:54"	"female"	83	5	1	5	1	0	820	"réporce"	"1"	"-spelling"	1
"249_1"	249	18	"left"	"Other"	"11:23:54"	"female"	53	1	5	1	5	0	1930	"orgueil"	"1"	"-spelling"	1
"249_1"	249	18	"left"	"Other"	"11:23:54"	"female"	54	1	5	1	1	1	1695	"amorce"	"1"	"-spelling"	1
"249_1"	249	18	"left"	"Other"	"11:23:54"	"female"	55	1	5	1	1	1	1957	"cintre"	"1"	"-spelling"	1
"249_1"	249	18	"left"	"Other"	"11:23:54"	"female"	57	1	5	1	5	0	2697	"bouton"	"1"	"-spelling"	1
"249_1"	249	18	"left"	"Other"	"11:23:54"	"female"	58	1	5	1	5	0	1178	"capeline"	"1"	"-spelling"	1
"249_1"	249	18	"left"	"Other"	"11:23:54"	"female"	59	1	5	1	1	1	982	"lanière"	"1"	"-spelling"	1
"249_1"	249	18	"left"	"Other"	"11:23:54"	"female"	56	1	5	1	1	1	817	"chameau"	"1"	"-spelling"	1
"249_1"	249	18	"left"	"Other"	"11:23:54"	"female"	8	1	5	1	1	1	1264	"infâme"	"1"	"-spelling"	1
"249_1"	249	18	"left"	"Other"	"11:23:54"	"female"	62	1	5	1	1	1	960	"fenêtre"	"1"	"-spelling"	1
"249_1"	249	18	"left"	"Other"	"11:23:54"	"female"	63	1	5	1	5	0	934	"écureuil "	"1"	"-spelling"	1
"249_1"	249	18	"left"	"Other"	"11:23:54"	"female"	64	1	5	1	5	0	1423	"caddie"	"1"	"-spelling"	1
"249_1"	249	18	"left"	"Other"	"11:23:54"	"female"	65	5	1	5	5	1	1394	"détume"	"1"	"-spelling"	1
"249_1"	249	18	"left"	"Other"	"11:23:54"	"female"	66	5	1	5	1	0	1766	"oeuiller"	"1"	"-spelling"	1
"249_1"	249	18	"left"	"Other"	"11:23:54"	"female"	67	1	5	1	5	0	1113	"balai"	"1"	"-spelling"	1
"249_1"	249	18	"left"	"Other"	"11:23:54"	"female"	68	5	1	5	1	0	1632	"prioche"	"1"	"-spelling"	1
"249_1"	249	18	"left"	"Other"	"11:23:54"	"female"	69	1	5	1	1	1	1780	"vicelard"	"1"	"-spelling"	1
"249_1"	249	18	"left"	"Other"	"11:23:54"	"female"	70	5	1	5	1	0	950	"joueux"	"1"	"-spelling"	1
"249_1"	249	18	"left"	"Other"	"11:23:54"	"female"	71	5	1	5	5	1	832	"agire"	"1"	"-spelling"	1
"249_1"	249	18	"left"	"Other"	"11:23:54"	"female"	72	1	5	1	5	0	1676	"éventail"	"1"	"-spelling"	1
"249_1"	249	18	"left"	"Other"	"11:23:54"	"female"	60	5	1	5	1	0	871	"honteur"	"1"	"-spelling"	1
"249_1"	249	18	"left"	"Other"	"11:23:54"	"female"	61	1	5	1	5	0	1719	"abêtir"	"1"	"-spelling"	1
"249_1"	249	18	"left"	"Other"	"11:23:54"	"female"	76	1	5	1	1	1	1498	"bouilloire"	"1"	"-spelling"	1
"249_1"	249	18	"left"	"Other"	"11:23:54"	"female"	77	5	1	5	1	0	1178	"parir"	"1"	"-spelling"	1
"249_1"	249	18	"left"	"Other"	"11:23:54"	"female"	78	1	5	1	1	1	1881	"remporter"	"1"	"-spelling"	1
"249_1"	249	18	"left"	"Other"	"11:23:54"	"female"	79	5	1	5	1	0	2646	"procoreux"	"1"	"-spelling"	1
"249_1"	249	18	"left"	"Other"	"11:23:54"	"female"	80	1	5	1	5	0	1419	"tanin"	"1"	"-spelling"	1
"249_1"	249	18	"left"	"Other"	"11:23:54"	"female"	81	1	5	1	5	0	944	"église"	"1"	"-spelling"	1
"249_1"	249	18	"left"	"Other"	"11:23:54"	"female"	1	1	5	1	1	1	1407	"cheveux"	"1"	"-spelling"	1
"249_1"	249	18	"left"	"Other"	"11:23:54"	"female"	2	5	1	5	1	0	992	"soumon"	"1"	"-spelling"	1
"249_1"	249	18	"left"	"Other"	"11:23:54"	"female"	3	1	5	1	5	0	780	"cloche"	"1"	"-spelling"	1
"249_1"	249	18	"left"	"Other"	"11:23:54"	"female"	4	1	5	1	5	0	930	"fascine"	"1"	"-spelling"	1
"249_1"	249	18	"left"	"Other"	"11:23:54"	"female"	5	5	1	5	5	1	700	"huif"	"1"	"-spelling"	1
"249_1"	249	18	"left"	"Other"	"11:23:54"	"female"	6	1	5	1	1	1	618	"semonce"	"1"	"-spelling"	1
"249_1"	249	18	"left"	"Other"	"11:23:54"	"female"	7	1	5	1	5	0	751	"canoter "	"1"	"-spelling"	1
"249_1"	249	18	"left"	"Other"	"11:23:54"	"female"	48	1	5	1	5	0	1183	"alourdir"	"1"	"-spelling"	1
"249_1"	249	18	"left"	"Other"	"11:23:54"	"female"	49	1	5	1	1	1	1371	"marteau"	"1"	"-spelling"	1
"249_1"	249	18	"left"	"Other"	"11:23:54"	"female"	50	1	5	1	5	0	1135	"esquif"	"1"	"-spelling"	1
"249_1"	249	18	"left"	"Other"	"11:23:54"	"female"	51	1	5	1	1	1	1777	"treillage"	"1"	"-spelling"	1
"249_1"	249	18	"left"	"Other"	"11:23:54"	"female"	52	1	5	1	5	0	1890	"dauphin"	"1"	"-spelling"	1
"249_1"	249	18	"left"	"Other"	"11:23:54"	"female"	12	5	1	5	1	0	1358	"pourcine"	"1"	"-spelling"	1
"249_1"	249	18	"left"	"Other"	"11:23:54"	"female"	13	1	5	1	1	1	2003	"œillet"	"1"	"-spelling"	1
"249_1"	249	18	"left"	"Other"	"11:23:54"	"female"	14	5	1	5	5	1	804	"raplaner"	"1"	"-spelling"	1
"249_1"	249	18	"left"	"Other"	"11:23:54"	"female"	15	5	1	5	5	1	860	"plaiser"	"1"	"-spelling"	1
"249_1"	249	18	"left"	"Other"	"11:23:54"	"female"	16	5	1	5	5	1	1205	"cerveler"	"1"	"-spelling"	1
"249_1"	249	18	"left"	"Other"	"11:23:54"	"female"	17	5	1	5	1	0	1116	"endifier"	"1"	"-spelling"	1
"249_1"	249	18	"left"	"Other"	"11:23:54"	"female"	18	5	1	5	1	0	1166	"jamain"	"1"	"-spelling"	1
"249_1"	249	18	"left"	"Other"	"11:23:54"	"female"	19	1	5	1	1	1	987	"ennemi"	"1"	"-spelling"	1
"249_1"	249	18	"left"	"Other"	"11:23:54"	"female"	20	1	5	1	1	1	980	"pouce"	"1"	"-spelling"	1
"249_1"	249	18	"left"	"Other"	"11:23:54"	"female"	21	5	1	5	5	1	982	"metter"	"1"	"-spelling"	1
"249_1"	249	18	"left"	"Other"	"11:23:54"	"female"	22	1	5	1	1	1	1047	"fosse"	"1"	"-spelling"	1
"249_1"	249	18	"left"	"Other"	"11:23:54"	"female"	23	1	5	1	1	1	1129	"inciter"	"1"	"-spelling"	1
"249_1"	249	18	"left"	"Other"	"11:23:54"	"female"	24	1	5	1	1	1	1058	"salière"	"1"	"-spelling"	1
"249_1"	249	18	"left"	"Other"	"11:23:54"	"female"	25	1	5	1	1	1	1508	"fouet"	"1"	"-spelling"	1
"249_1"	249	18	"left"	"Other"	"11:23:54"	"female"	26	5	1	5	1	0	2380	"cessure"	"1"	"-spelling"	1
"249_1"	249	18	"left"	"Other"	"11:23:54"	"female"	27	1	5	1	5	0	814	"clouer"	"1"	"-spelling"	1
"249_1"	249	18	"left"	"Other"	"11:23:54"	"female"	28	1	5	1	5	0	1517	"mappemonde"	"1"	"-spelling"	1
"249_1"	249	18	"left"	"Other"	"11:23:54"	"female"	29	5	1	5	5	1	1190	"gloque"	"1"	"-spelling"	1
"249_1"	249	18	"left"	"Other"	"11:23:54"	"female"	30	1	5	1	1	1	1167	"lézard"	"1"	"-spelling"	1
"249_1"	249	18	"left"	"Other"	"11:23:54"	"female"	31	5	1	5	1	0	707	"sacher"	"1"	"-spelling"	1
"249_1"	249	18	"left"	"Other"	"11:23:54"	"female"	73	5	1	5	1	0	927	"boutard"	"1"	"-spelling"	1
"249_1"	249	18	"left"	"Other"	"11:23:54"	"female"	74	1	5	1	5	0	1460	"panier"	"1"	"-spelling"	1
"249_1"	249	18	"left"	"Other"	"11:23:54"	"female"	75	1	5	1	5	0	1911	"citrouille"	"1"	"-spelling"	1
"249_1"	249	18	"left"	"Other"	"11:23:54"	"female"	35	5	1	5	5	1	2023	"osseaux"	"1"	"-spelling"	1
"249_1"	249	18	"left"	"Other"	"11:23:54"	"female"	36	5	1	5	1	0	1596	"rejoute"	"1"	"-spelling"	1
"249_1"	249	18	"left"	"Other"	"11:23:54"	"female"	37	1	5	1	5	0	974	"escroc"	"1"	"-spelling"	1
"249_1"	249	18	"left"	"Other"	"11:23:54"	"female"	38	1	5	1	5	0	2211	"hache"	"1"	"-spelling"	1
"249_1"	249	18	"left"	"Other"	"11:23:54"	"female"	39	5	1	5	1	0	1325	"parchance"	"1"	"-spelling"	1
"249_1"	249	18	"left"	"Other"	"11:23:54"	"female"	40	1	5	1	5	0	1358	"pinceau"	"1"	"-spelling"	1
"249_1"	249	18	"left"	"Other"	"11:23:54"	"female"	41	1	5	1	1	1	775	"poisson"	"1"	"-spelling"	1
"249_1"	249	18	"left"	"Other"	"11:23:54"	"female"	42	1	5	1	1	1	1311	"robinet"	"1"	"-spelling"	1
"249_1"	249	18	"left"	"Other"	"11:23:54"	"female"	43	1	5	1	5	0	2299	"amadouer"	"1"	"-spelling"	1
"249_1"	249	18	"left"	"Other"	"11:23:54"	"female"	44	1	5	1	1	1	1311	"peigne"	"1"	"-spelling"	1
"249_1"	249	18	"left"	"Other"	"11:23:54"	"female"	84	1	5	1	1	1	1189	"mignon"	"1"	"-spelling"	1
"249_1"	249	18	"left"	"Other"	"11:23:54"	"female"	46	1	5	1	1	1	1397	"crayon"	"1"	"-spelling"	1
"249_1"	249	18	"left"	"Other"	"11:23:54"	"female"	47	5	1	5	1	0	1332	"sentuelle"	"1"	"-spelling"	1
"249_1"	249	18	"left"	"Other"	"11:23:54"	"female"	34	5	1	5	1	0	2519	"écouce"	"1"	"-spelling"	1
"249_1"	249	18	"left"	"Other"	"11:23:54"	"female"	10	1	5	1	1	1	1470	"cadenas"	"1"	"-spelling"	1
"249_1"	249	18	"left"	"Other"	"11:23:54"	"female"	11	1	5	1	5	0	689	"racaille"	"1"	"-spelling"	1
"249_1"	249	18	"left"	"Other"	"11:23:54"	"female"	33	1	5	1	5	0	894	"occire"	"1"	"-spelling"	1
"249_1"	249	18	"left"	"Other"	"11:23:54"	"female"	32	1	5	1	1	1	931	"nouer"	"1"	"-spelling"	1
"249_1"	249	18	"left"	"Other"	"11:23:54"	"female"	45	5	1	5	1	0	1309	"retruire"	"1"	"-spelling"	1
"25_1"	25	19	"right"	"Tijl"	"14:20:40"	"female"	43	1	5	5	1	0	968	"amadouer"	"1"	"-spelling"	1
"25_1"	25	19	"right"	"Tijl"	"14:20:40"	"female"	9	1	5	5	5	1	885	"fourmi"	"1"	"-spelling"	1
"25_1"	25	19	"right"	"Tijl"	"14:20:40"	"female"	10	1	5	5	1	0	650	"cadenas"	"1"	"-spelling"	1
"25_1"	25	19	"right"	"Tijl"	"14:20:40"	"female"	55	1	5	5	1	0	635	"cintre"	"1"	"-spelling"	1
"25_1"	25	19	"right"	"Tijl"	"14:20:40"	"female"	56	1	5	5	1	0	979	"chameau"	"1"	"-spelling"	1
"25_1"	25	19	"right"	"Tijl"	"14:20:40"	"female"	57	1	5	5	1	0	1340	"bouton"	"1"	"-spelling"	1
"25_1"	25	19	"right"	"Tijl"	"14:20:40"	"female"	54	1	5	5	1	0	1580	"amorce"	"1"	"-spelling"	1
"25_1"	25	19	"right"	"Tijl"	"14:20:40"	"female"	59	1	5	5	5	1	2006	"lanière"	"1"	"-spelling"	1
"25_1"	25	19	"right"	"Tijl"	"14:20:40"	"female"	60	5	1	1	1	1	741	"honteur"	"1"	"-spelling"	1
"25_1"	25	19	"right"	"Tijl"	"14:20:40"	"female"	61	1	5	5	1	0	794	"abêtir"	"1"	"-spelling"	1
"25_1"	25	19	"right"	"Tijl"	"14:20:40"	"female"	58	1	5	5	1	0	2670	"capeline"	"1"	"-spelling"	1
"25_1"	25	19	"right"	"Tijl"	"14:20:40"	"female"	8	1	5	5	1	0	1511	"infâme"	"1"	"-spelling"	1
"25_1"	25	19	"right"	"Tijl"	"14:20:40"	"female"	64	1	5	5	5	1	1295	"caddie"	"1"	"-spelling"	1
"25_1"	25	19	"right"	"Tijl"	"14:20:40"	"female"	65	5	1	1	1	1	542	"détume"	"1"	"-spelling"	1
"25_1"	25	19	"right"	"Tijl"	"14:20:40"	"female"	66	5	1	1	1	1	677	"oeuiller"	"1"	"-spelling"	1
"25_1"	25	19	"right"	"Tijl"	"14:20:40"	"female"	67	1	5	5	1	0	702	"balai"	"1"	"-spelling"	1
"25_1"	25	19	"right"	"Tijl"	"14:20:40"	"female"	68	5	1	1	1	1	872	"prioche"	"1"	"-spelling"	1
"25_1"	25	19	"right"	"Tijl"	"14:20:40"	"female"	69	1	5	5	1	0	704	"vicelard"	"1"	"-spelling"	1
"25_1"	25	19	"right"	"Tijl"	"14:20:40"	"female"	70	5	1	1	5	0	672	"joueux"	"1"	"-spelling"	1
"25_1"	25	19	"right"	"Tijl"	"14:20:40"	"female"	71	5	1	1	1	1	582	"agire"	"1"	"-spelling"	1
"25_1"	25	19	"right"	"Tijl"	"14:20:40"	"female"	72	1	5	5	1	0	1072	"éventail"	"1"	"-spelling"	1
"25_1"	25	19	"right"	"Tijl"	"14:20:40"	"female"	73	5	1	1	1	1	1022	"boutard"	"1"	"-spelling"	1
"25_1"	25	19	"right"	"Tijl"	"14:20:40"	"female"	74	1	5	5	1	0	778	"panier"	"1"	"-spelling"	1
"25_1"	25	19	"right"	"Tijl"	"14:20:40"	"female"	62	1	5	5	5	1	947	"fenêtre"	"1"	"-spelling"	1
"25_1"	25	19	"right"	"Tijl"	"14:20:40"	"female"	63	1	5	5	1	0	942	"écureuil "	"1"	"-spelling"	1
"25_1"	25	19	"right"	"Tijl"	"14:20:40"	"female"	36	5	1	1	1	1	777	"rejoute"	"1"	"-spelling"	1
"25_1"	25	19	"right"	"Tijl"	"14:20:40"	"female"	37	1	5	5	5	1	1916	"escroc"	"1"	"-spelling"	1
"25_1"	25	19	"right"	"Tijl"	"14:20:40"	"female"	38	1	5	5	5	1	1372	"hache"	"1"	"-spelling"	1
"25_1"	25	19	"right"	"Tijl"	"14:20:40"	"female"	39	5	1	1	5	0	1953	"parchance"	"1"	"-spelling"	1
"25_1"	25	19	"right"	"Tijl"	"14:20:40"	"female"	40	1	5	5	1	0	1650	"pinceau"	"1"	"-spelling"	1
"25_1"	25	19	"right"	"Tijl"	"14:20:40"	"female"	41	1	5	5	1	0	1588	"poisson"	"1"	"-spelling"	1
"25_1"	25	19	"right"	"Tijl"	"14:20:40"	"female"	42	1	5	5	1	0	1298	"robinet"	"1"	"-spelling"	1
"25_1"	25	19	"right"	"Tijl"	"14:20:40"	"female"	83	5	1	1	5	0	1772	"réporce"	"1"	"-spelling"	1
"25_1"	25	19	"right"	"Tijl"	"14:20:40"	"female"	84	1	5	5	1	0	436	"mignon"	"1"	"-spelling"	1
"25_1"	25	19	"right"	"Tijl"	"14:20:40"	"female"	44	1	5	5	1	0	572	"peigne"	"1"	"-spelling"	1
"25_1"	25	19	"right"	"Tijl"	"14:20:40"	"female"	45	5	1	1	1	1	5916	"retruire"	"1"	"-spelling"	1
"25_1"	25	19	"right"	"Tijl"	"14:20:40"	"female"	46	1	5	5	1	0	1309	"crayon"	"1"	"-spelling"	1
"25_1"	25	19	"right"	"Tijl"	"14:20:40"	"female"	47	5	1	1	5	0	1826	"sentuelle"	"1"	"-spelling"	1
"25_1"	25	19	"right"	"Tijl"	"14:20:40"	"female"	48	1	5	5	1	0	4272	"alourdir"	"1"	"-spelling"	1
"25_1"	25	19	"right"	"Tijl"	"14:20:40"	"female"	49	1	5	5	1	0	3895	"marteau"	"1"	"-spelling"	1
"25_1"	25	19	"right"	"Tijl"	"14:20:40"	"female"	50	1	5	5	1	0	2710	"esquif"	"1"	"-spelling"	1
"25_1"	25	19	"right"	"Tijl"	"14:20:40"	"female"	11	1	5	5	1	0	2825	"racaille"	"1"	"-spelling"	1
"25_1"	25	19	"right"	"Tijl"	"14:20:40"	"female"	12	5	1	1	5	0	1294	"pourcine"	"1"	"-spelling"	1
"25_1"	25	19	"right"	"Tijl"	"14:20:40"	"female"	13	1	5	5	1	0	941	"œillet"	"1"	"-spelling"	1
"25_1"	25	19	"right"	"Tijl"	"14:20:40"	"female"	14	5	1	1	1	1	8191	"raplaner"	"1"	"-spelling"	1
"25_1"	25	19	"right"	"Tijl"	"14:20:40"	"female"	15	5	1	1	1	1	3203	"plaiser"	"1"	"-spelling"	1
"25_1"	25	19	"right"	"Tijl"	"14:20:40"	"female"	16	5	1	1	1	1	1071	"cerveler"	"1"	"-spelling"	1
"25_1"	25	19	"right"	"Tijl"	"14:20:40"	"female"	17	5	1	1	1	1	1547	"endifier"	"1"	"-spelling"	1
"25_1"	25	19	"right"	"Tijl"	"14:20:40"	"female"	18	5	1	1	5	0	914	"jamain"	"1"	"-spelling"	1
"25_1"	25	19	"right"	"Tijl"	"14:20:40"	"female"	19	1	5	5	1	0	754	"ennemi"	"1"	"-spelling"	1
"25_1"	25	19	"right"	"Tijl"	"14:20:40"	"female"	20	1	5	5	5	1	794	"pouce"	"1"	"-spelling"	1
"25_1"	25	19	"right"	"Tijl"	"14:20:40"	"female"	21	5	1	1	1	1	636	"metter"	"1"	"-spelling"	1
"25_1"	25	19	"right"	"Tijl"	"14:20:40"	"female"	22	1	5	5	1	0	622	"fosse"	"1"	"-spelling"	1
"25_1"	25	19	"right"	"Tijl"	"14:20:40"	"female"	23	1	5	5	1	0	902	"inciter"	"1"	"-spelling"	1
"25_1"	25	19	"right"	"Tijl"	"14:20:40"	"female"	24	1	5	5	5	1	650	"salière"	"1"	"-spelling"	1
"25_1"	25	19	"right"	"Tijl"	"14:20:40"	"female"	25	1	5	5	1	0	799	"fouet"	"1"	"-spelling"	1
"25_1"	25	19	"right"	"Tijl"	"14:20:40"	"female"	26	5	1	1	5	0	1441	"cessure"	"1"	"-spelling"	1
"25_1"	25	19	"right"	"Tijl"	"14:20:40"	"female"	27	1	5	5	1	0	702	"clouer"	"1"	"-spelling"	1
"25_1"	25	19	"right"	"Tijl"	"14:20:40"	"female"	28	1	5	5	1	0	1992	"mappemonde"	"1"	"-spelling"	1
"25_1"	25	19	"right"	"Tijl"	"14:20:40"	"female"	29	5	1	1	1	1	1058	"gloque"	"1"	"-spelling"	1
"25_1"	25	19	"right"	"Tijl"	"14:20:40"	"female"	30	1	5	5	1	0	985	"lézard"	"1"	"-spelling"	1
"25_1"	25	19	"right"	"Tijl"	"14:20:40"	"female"	31	5	1	1	5	0	1399	"sacher"	"1"	"-spelling"	1
"25_1"	25	19	"right"	"Tijl"	"14:20:40"	"female"	32	1	5	5	1	0	1200	"nouer"	"1"	"-spelling"	1
"25_1"	25	19	"right"	"Tijl"	"14:20:40"	"female"	33	1	5	5	1	0	609	"occire"	"1"	"-spelling"	1
"25_1"	25	19	"right"	"Tijl"	"14:20:40"	"female"	34	5	1	1	5	0	1245	"écouce"	"1"	"-spelling"	1
"25_1"	25	19	"right"	"Tijl"	"14:20:40"	"female"	35	5	1	1	1	1	2986	"osseaux"	"1"	"-spelling"	1
"25_1"	25	19	"right"	"Tijl"	"14:20:40"	"female"	77	5	1	1	1	1	923	"parir"	"1"	"-spelling"	1
"25_1"	25	19	"right"	"Tijl"	"14:20:40"	"female"	78	1	5	5	5	1	992	"remporter"	"1"	"-spelling"	1
"25_1"	25	19	"right"	"Tijl"	"14:20:40"	"female"	79	5	1	1	1	1	799	"procoreux"	"1"	"-spelling"	1
"25_1"	25	19	"right"	"Tijl"	"14:20:40"	"female"	80	1	5	5	1	0	713	"tanin"	"1"	"-spelling"	1
"25_1"	25	19	"right"	"Tijl"	"14:20:40"	"female"	81	1	5	5	5	1	984	"église"	"1"	"-spelling"	1
"25_1"	25	19	"right"	"Tijl"	"14:20:40"	"female"	82	1	5	5	5	1	1999	"indicible"	"1"	"-spelling"	1
"25_1"	25	19	"right"	"Tijl"	"14:20:40"	"female"	1	1	5	5	1	0	1599	"cheveux"	"1"	"-spelling"	1
"25_1"	25	19	"right"	"Tijl"	"14:20:40"	"female"	2	5	1	1	1	1	2394	"soumon"	"1"	"-spelling"	1
"25_1"	25	19	"right"	"Tijl"	"14:20:40"	"female"	3	1	5	5	1	0	1098	"cloche"	"1"	"-spelling"	1
"25_1"	25	19	"right"	"Tijl"	"14:20:40"	"female"	4	1	5	5	5	1	965	"fascine"	"1"	"-spelling"	1
"25_1"	25	19	"right"	"Tijl"	"14:20:40"	"female"	5	5	1	1	1	1	634	"huif"	"1"	"-spelling"	1
"25_1"	25	19	"right"	"Tijl"	"14:20:40"	"female"	6	1	5	5	1	0	956	"semonce"	"1"	"-spelling"	1
"25_1"	25	19	"right"	"Tijl"	"14:20:40"	"female"	7	1	5	5	1	0	1048	"canoter "	"1"	"-spelling"	1
"25_1"	25	19	"right"	"Tijl"	"14:20:40"	"female"	76	1	5	5	5	1	1109	"bouilloire"	"1"	"-spelling"	1
"25_1"	25	19	"right"	"Tijl"	"14:20:40"	"female"	51	1	5	5	1	0	1258	"treillage"	"1"	"-spelling"	1
"25_1"	25	19	"right"	"Tijl"	"14:20:40"	"female"	52	1	5	5	5	1	1052	"dauphin"	"1"	"-spelling"	1
"25_1"	25	19	"right"	"Tijl"	"14:20:40"	"female"	53	1	5	5	1	0	941	"orgueil"	"1"	"-spelling"	1
"25_1"	25	19	"right"	"Tijl"	"14:20:40"	"female"	75	1	5	5	5	1	1959	"citrouille"	"1"	"-spelling"	1
"251_1"	251	21	"right"	"Other"	"12:51:46"	"female"	47	5	1	1	5	0	1678	"sentuelle"	"1"	"-spelling"	1
"251_1"	251	21	"right"	"Other"	"12:51:46"	"female"	49	1	5	5	1	0	1323	"marteau"	"1"	"-spelling"	1
"251_1"	251	21	"right"	"Other"	"12:51:46"	"female"	50	1	5	5	1	0	1258	"esquif"	"1"	"-spelling"	1
"251_1"	251	21	"right"	"Other"	"12:51:46"	"female"	51	1	5	5	1	0	2283	"treillage"	"1"	"-spelling"	1
"251_1"	251	21	"right"	"Other"	"12:51:46"	"female"	48	1	5	5	1	0	1277	"alourdir"	"1"	"-spelling"	1
"251_1"	251	21	"right"	"Other"	"12:51:46"	"female"	2	5	1	1	1	1	1534	"soumon"	"1"	"-spelling"	1
"251_1"	251	21	"right"	"Other"	"12:51:46"	"female"	58	1	5	5	1	0	1226	"capeline"	"1"	"-spelling"	1
"251_1"	251	21	"right"	"Other"	"12:51:46"	"female"	59	1	5	5	5	1	1420	"lanière"	"1"	"-spelling"	1
"251_1"	251	21	"right"	"Other"	"12:51:46"	"female"	52	1	5	5	1	0	1861	"dauphin"	"1"	"-spelling"	1
"251_1"	251	21	"right"	"Other"	"12:51:46"	"female"	61	1	5	5	5	1	1863	"abêtir"	"1"	"-spelling"	1
"251_1"	251	21	"right"	"Other"	"12:51:46"	"female"	62	1	5	5	5	1	1300	"fenêtre"	"1"	"-spelling"	1
"251_1"	251	21	"right"	"Other"	"12:51:46"	"female"	63	1	5	5	1	0	3462	"écureuil "	"1"	"-spelling"	1
"251_1"	251	21	"right"	"Other"	"12:51:46"	"female"	60	5	1	1	5	0	1106	"honteur"	"1"	"-spelling"	1
"251_1"	251	21	"right"	"Other"	"12:51:46"	"female"	65	5	1	1	5	0	1377	"détume"	"1"	"-spelling"	1
"251_1"	251	21	"right"	"Other"	"12:51:46"	"female"	53	1	5	5	1	0	4279	"orgueil"	"1"	"-spelling"	1
"251_1"	251	21	"right"	"Other"	"12:51:46"	"female"	54	1	5	5	1	0	1553	"amorce"	"1"	"-spelling"	1
"251_1"	251	21	"right"	"Other"	"12:51:46"	"female"	64	1	5	5	1	0	958	"caddie"	"1"	"-spelling"	1
"251_1"	251	21	"right"	"Other"	"12:51:46"	"female"	56	1	5	5	5	1	2029	"chameau"	"1"	"-spelling"	1
"251_1"	251	21	"right"	"Other"	"12:51:46"	"female"	57	1	5	5	5	1	1329	"bouton"	"1"	"-spelling"	1
"251_1"	251	21	"right"	"Other"	"12:51:46"	"female"	31	5	1	1	5	0	1214	"sacher"	"1"	"-spelling"	1
"251_1"	251	21	"right"	"Other"	"12:51:46"	"female"	32	1	5	5	1	0	2020	"nouer"	"1"	"-spelling"	1
"251_1"	251	21	"right"	"Other"	"12:51:46"	"female"	33	1	5	5	1	0	1359	"occire"	"1"	"-spelling"	1
"251_1"	251	21	"right"	"Other"	"12:51:46"	"female"	34	5	1	1	1	1	1713	"écouce"	"1"	"-spelling"	1
"251_1"	251	21	"right"	"Other"	"12:51:46"	"female"	35	5	1	1	1	1	1827	"osseaux"	"1"	"-spelling"	1
"251_1"	251	21	"right"	"Other"	"12:51:46"	"female"	36	5	1	1	5	0	1033	"rejoute"	"1"	"-spelling"	1
"251_1"	251	21	"right"	"Other"	"12:51:46"	"female"	37	1	5	5	1	0	1410	"escroc"	"1"	"-spelling"	1
"251_1"	251	21	"right"	"Other"	"12:51:46"	"female"	38	1	5	5	5	1	1121	"hache"	"1"	"-spelling"	1
"251_1"	251	21	"right"	"Other"	"12:51:46"	"female"	66	5	1	1	1	1	4493	"oeuiller"	"1"	"-spelling"	1
"251_1"	251	21	"right"	"Other"	"12:51:46"	"female"	67	1	5	5	1	0	1109	"balai"	"1"	"-spelling"	1
"251_1"	251	21	"right"	"Other"	"12:51:46"	"female"	55	1	5	5	1	0	2783	"cintre"	"1"	"-spelling"	1
"251_1"	251	21	"right"	"Other"	"12:51:46"	"female"	29	5	1	1	1	1	2832	"gloque"	"1"	"-spelling"	1
"251_1"	251	21	"right"	"Other"	"12:51:46"	"female"	30	1	5	5	5	1	1539	"lézard"	"1"	"-spelling"	1
"251_1"	251	21	"right"	"Other"	"12:51:46"	"female"	43	1	5	5	1	0	2224	"amadouer"	"1"	"-spelling"	1
"251_1"	251	21	"right"	"Other"	"12:51:46"	"female"	3	1	5	5	5	1	3089	"cloche"	"1"	"-spelling"	1
"251_1"	251	21	"right"	"Other"	"12:51:46"	"female"	4	1	5	5	5	1	1382	"fascine"	"1"	"-spelling"	1
"251_1"	251	21	"right"	"Other"	"12:51:46"	"female"	5	5	1	1	1	1	1316	"huif"	"1"	"-spelling"	1
"251_1"	251	21	"right"	"Other"	"12:51:46"	"female"	6	1	5	5	1	0	1829	"semonce"	"1"	"-spelling"	1
"251_1"	251	21	"right"	"Other"	"12:51:46"	"female"	7	1	5	5	5	1	3085	"canoter "	"1"	"-spelling"	1
"251_1"	251	21	"right"	"Other"	"12:51:46"	"female"	8	1	5	5	1	0	1587	"infâme"	"1"	"-spelling"	1
"251_1"	251	21	"right"	"Other"	"12:51:46"	"female"	9	1	5	5	5	1	1378	"fourmi"	"1"	"-spelling"	1
"251_1"	251	21	"right"	"Other"	"12:51:46"	"female"	10	1	5	5	1	0	2829	"cadenas"	"1"	"-spelling"	1
"251_1"	251	21	"right"	"Other"	"12:51:46"	"female"	11	1	5	5	1	0	2994	"racaille"	"1"	"-spelling"	1
"251_1"	251	21	"right"	"Other"	"12:51:46"	"female"	12	5	1	1	1	1	2142	"pourcine"	"1"	"-spelling"	1
"251_1"	251	21	"right"	"Other"	"12:51:46"	"female"	13	1	5	5	1	0	3078	"œillet"	"1"	"-spelling"	1
"251_1"	251	21	"right"	"Other"	"12:51:46"	"female"	14	5	1	1	1	1	2606	"raplaner"	"1"	"-spelling"	1
"251_1"	251	21	"right"	"Other"	"12:51:46"	"female"	15	5	1	1	5	0	1533	"plaiser"	"1"	"-spelling"	1
"251_1"	251	21	"right"	"Other"	"12:51:46"	"female"	16	5	1	1	5	0	1905	"cerveler"	"1"	"-spelling"	1
"251_1"	251	21	"right"	"Other"	"12:51:46"	"female"	17	5	1	1	1	1	1294	"endifier"	"1"	"-spelling"	1
"251_1"	251	21	"right"	"Other"	"12:51:46"	"female"	18	5	1	1	5	0	1055	"jamain"	"1"	"-spelling"	1
"251_1"	251	21	"right"	"Other"	"12:51:46"	"female"	19	1	5	5	1	0	2209	"ennemi"	"1"	"-spelling"	1
"251_1"	251	21	"right"	"Other"	"12:51:46"	"female"	20	1	5	5	5	1	1261	"pouce"	"1"	"-spelling"	1
"251_1"	251	21	"right"	"Other"	"12:51:46"	"female"	21	5	1	1	5	0	1507	"metter"	"1"	"-spelling"	1
"251_1"	251	21	"right"	"Other"	"12:51:46"	"female"	22	1	5	5	1	0	1266	"fosse"	"1"	"-spelling"	1
"251_1"	251	21	"right"	"Other"	"12:51:46"	"female"	23	1	5	5	5	1	1568	"inciter"	"1"	"-spelling"	1
"251_1"	251	21	"right"	"Other"	"12:51:46"	"female"	24	1	5	5	5	1	2165	"salière"	"1"	"-spelling"	1
"251_1"	251	21	"right"	"Other"	"12:51:46"	"female"	25	1	5	5	5	1	1497	"fouet"	"1"	"-spelling"	1
"251_1"	251	21	"right"	"Other"	"12:51:46"	"female"	26	5	1	1	5	0	1786	"cessure"	"1"	"-spelling"	1
"251_1"	251	21	"right"	"Other"	"12:51:46"	"female"	27	1	5	5	1	0	1648	"clouer"	"1"	"-spelling"	1
"251_1"	251	21	"right"	"Other"	"12:51:46"	"female"	28	1	5	5	1	0	2586	"mappemonde"	"1"	"-spelling"	1
"251_1"	251	21	"right"	"Other"	"12:51:46"	"female"	70	5	1	1	5	0	1275	"joueux"	"1"	"-spelling"	1
"251_1"	251	21	"right"	"Other"	"12:51:46"	"female"	71	5	1	1	5	0	1734	"agire"	"1"	"-spelling"	1
"251_1"	251	21	"right"	"Other"	"12:51:46"	"female"	72	1	5	5	5	1	3887	"éventail"	"1"	"-spelling"	1
"251_1"	251	21	"right"	"Other"	"12:51:46"	"female"	73	5	1	1	5	0	1071	"boutard"	"1"	"-spelling"	1
"251_1"	251	21	"right"	"Other"	"12:51:46"	"female"	74	1	5	5	1	0	1257	"panier"	"1"	"-spelling"	1
"251_1"	251	21	"right"	"Other"	"12:51:46"	"female"	75	1	5	5	5	1	2334	"citrouille"	"1"	"-spelling"	1
"251_1"	251	21	"right"	"Other"	"12:51:46"	"female"	76	1	5	5	5	1	1912	"bouilloire"	"1"	"-spelling"	1
"251_1"	251	21	"right"	"Other"	"12:51:46"	"female"	77	5	1	1	5	0	1219	"parir"	"1"	"-spelling"	1
"251_1"	251	21	"right"	"Other"	"12:51:46"	"female"	78	1	5	5	5	1	1211	"remporter"	"1"	"-spelling"	1
"251_1"	251	21	"right"	"Other"	"12:51:46"	"female"	39	5	1	1	1	1	1622	"parchance"	"1"	"-spelling"	1
"251_1"	251	21	"right"	"Other"	"12:51:46"	"female"	40	1	5	5	1	0	1839	"pinceau"	"1"	"-spelling"	1
"251_1"	251	21	"right"	"Other"	"12:51:46"	"female"	41	1	5	5	5	1	1275	"poisson"	"1"	"-spelling"	1
"251_1"	251	21	"right"	"Other"	"12:51:46"	"female"	42	1	5	5	5	1	1476	"robinet"	"1"	"-spelling"	1
"251_1"	251	21	"right"	"Other"	"12:51:46"	"female"	83	5	1	1	5	0	1843	"réporce"	"1"	"-spelling"	1
"251_1"	251	21	"right"	"Other"	"12:51:46"	"female"	44	1	5	5	5	1	1312	"peigne"	"1"	"-spelling"	1
"251_1"	251	21	"right"	"Other"	"12:51:46"	"female"	45	5	1	1	5	0	1330	"retruire"	"1"	"-spelling"	1
"251_1"	251	21	"right"	"Other"	"12:51:46"	"female"	46	1	5	5	5	1	1353	"crayon"	"1"	"-spelling"	1
"251_1"	251	21	"right"	"Other"	"12:51:46"	"female"	84	1	5	5	5	1	1772	"mignon"	"1"	"-spelling"	1
"251_1"	251	21	"right"	"Other"	"12:51:46"	"female"	69	1	5	5	1	0	1145	"vicelard"	"1"	"-spelling"	1
"251_1"	251	21	"right"	"Other"	"12:51:46"	"female"	79	5	1	1	1	1	2310	"procoreux"	"1"	"-spelling"	1
"251_1"	251	21	"right"	"Other"	"12:51:46"	"female"	80	1	5	5	1	0	1234	"tanin"	"1"	"-spelling"	1
"251_1"	251	21	"right"	"Other"	"12:51:46"	"female"	68	5	1	1	5	0	3024	"prioche"	"1"	"-spelling"	1
"251_1"	251	21	"right"	"Other"	"12:51:46"	"female"	81	1	5	5	5	1	1427	"église"	"1"	"-spelling"	1
"251_1"	251	21	"right"	"Other"	"12:51:46"	"female"	1	1	5	5	5	1	2262	"cheveux"	"1"	"-spelling"	1
"251_1"	251	21	"right"	"Other"	"12:51:46"	"female"	82	1	5	5	1	0	2800	"indicible"	"1"	"-spelling"	1
"253_1"	253	18	"right"	"Ilse"	"16:19:15"	"female"	4	1	5	5	5	1	1356	"fascine"	"1"	"-spelling"	1
"253_1"	253	18	"right"	"Ilse"	"16:19:15"	"female"	12	5	1	1	1	1	1053	"pourcine"	"1"	"-spelling"	1
"253_1"	253	18	"right"	"Ilse"	"16:19:15"	"female"	5	5	1	1	1	1	1214	"huif"	"1"	"-spelling"	1
"253_1"	253	18	"right"	"Ilse"	"16:19:15"	"female"	3	1	5	5	1	0	3058	"cloche"	"1"	"-spelling"	1
"253_1"	253	18	"right"	"Ilse"	"16:19:15"	"female"	16	5	1	1	1	1	1883	"cerveler"	"1"	"-spelling"	1
"253_1"	253	18	"right"	"Ilse"	"16:19:15"	"female"	13	1	5	5	1	0	3162	"œillet"	"1"	"-spelling"	1
"253_1"	253	18	"right"	"Ilse"	"16:19:15"	"female"	6	1	5	5	1	0	2342	"semonce"	"1"	"-spelling"	1
"253_1"	253	18	"right"	"Ilse"	"16:19:15"	"female"	2	5	1	1	1	1	1178	"soumon"	"1"	"-spelling"	1
"253_1"	253	18	"right"	"Ilse"	"16:19:15"	"female"	7	1	5	5	1	0	1020	"canoter "	"1"	"-spelling"	1
"253_1"	253	18	"right"	"Ilse"	"16:19:15"	"female"	17	5	1	1	1	1	1230	"endifier"	"1"	"-spelling"	1
"253_1"	253	18	"right"	"Ilse"	"16:19:15"	"female"	18	5	1	1	5	0	1521	"jamain"	"1"	"-spelling"	1
"253_1"	253	18	"right"	"Ilse"	"16:19:15"	"female"	19	1	5	5	1	0	639	"ennemi"	"1"	"-spelling"	1
"253_1"	253	18	"right"	"Ilse"	"16:19:15"	"female"	11	1	5	5	1	0	2146	"racaille"	"1"	"-spelling"	1
"253_1"	253	18	"right"	"Ilse"	"16:19:15"	"female"	24	1	5	5	1	0	1113	"salière"	"1"	"-spelling"	1
"253_1"	253	18	"right"	"Ilse"	"16:19:15"	"female"	25	1	5	5	1	0	1200	"fouet"	"1"	"-spelling"	1
"253_1"	253	18	"right"	"Ilse"	"16:19:15"	"female"	14	5	1	1	1	1	956	"raplaner"	"1"	"-spelling"	1
"253_1"	253	18	"right"	"Ilse"	"16:19:15"	"female"	15	5	1	1	1	1	1128	"plaiser"	"1"	"-spelling"	1
"253_1"	253	18	"right"	"Ilse"	"16:19:15"	"female"	28	1	5	5	1	0	2288	"mappemonde"	"1"	"-spelling"	1
"253_1"	253	18	"right"	"Ilse"	"16:19:15"	"female"	29	5	1	1	1	1	1913	"gloque"	"1"	"-spelling"	1
"253_1"	253	18	"right"	"Ilse"	"16:19:15"	"female"	30	1	5	5	1	0	1890	"lézard"	"1"	"-spelling"	1
"253_1"	253	18	"right"	"Ilse"	"16:19:15"	"female"	31	5	1	1	1	1	1003	"sacher"	"1"	"-spelling"	1
"253_1"	253	18	"right"	"Ilse"	"16:19:15"	"female"	20	1	5	5	1	0	758	"pouce"	"1"	"-spelling"	1
"253_1"	253	18	"right"	"Ilse"	"16:19:15"	"female"	8	1	5	5	1	0	871	"infâme"	"1"	"-spelling"	1
"253_1"	253	18	"right"	"Ilse"	"16:19:15"	"female"	9	1	5	5	1	0	810	"fourmi"	"1"	"-spelling"	1
"253_1"	253	18	"right"	"Ilse"	"16:19:15"	"female"	10	1	5	5	1	0	1279	"cadenas"	"1"	"-spelling"	1
"253_1"	253	18	"right"	"Ilse"	"16:19:15"	"female"	23	1	5	5	1	0	1017	"inciter"	"1"	"-spelling"	1
"253_1"	253	18	"right"	"Ilse"	"16:19:15"	"female"	37	1	5	5	1	0	834	"escroc"	"1"	"-spelling"	1
"253_1"	253	18	"right"	"Ilse"	"16:19:15"	"female"	38	1	5	5	5	1	1409	"hache"	"1"	"-spelling"	1
"253_1"	253	18	"right"	"Ilse"	"16:19:15"	"female"	26	5	1	1	1	1	1291	"cessure"	"1"	"-spelling"	1
"253_1"	253	18	"right"	"Ilse"	"16:19:15"	"female"	27	1	5	5	1	0	1662	"clouer"	"1"	"-spelling"	1
"253_1"	253	18	"right"	"Ilse"	"16:19:15"	"female"	1	1	5	5	5	1	3264	"cheveux"	"1"	"-spelling"	1
"253_1"	253	18	"right"	"Ilse"	"16:19:15"	"female"	82	1	5	5	5	1	1391	"indicible"	"1"	"-spelling"	1
"253_1"	253	18	"right"	"Ilse"	"16:19:15"	"female"	83	5	1	1	1	1	754	"réporce"	"1"	"-spelling"	1
"253_1"	253	18	"right"	"Ilse"	"16:19:15"	"female"	84	1	5	5	5	1	964	"mignon"	"1"	"-spelling"	1
"253_1"	253	18	"right"	"Ilse"	"16:19:15"	"female"	44	1	5	5	1	0	843	"peigne"	"1"	"-spelling"	1
"253_1"	253	18	"right"	"Ilse"	"16:19:15"	"female"	45	5	1	1	1	1	1208	"retruire"	"1"	"-spelling"	1
"253_1"	253	18	"right"	"Ilse"	"16:19:15"	"female"	46	1	5	5	5	1	876	"crayon"	"1"	"-spelling"	1
"253_1"	253	18	"right"	"Ilse"	"16:19:15"	"female"	47	5	1	1	1	1	854	"sentuelle"	"1"	"-spelling"	1
"253_1"	253	18	"right"	"Ilse"	"16:19:15"	"female"	48	1	5	5	1	0	605	"alourdir"	"1"	"-spelling"	1
"253_1"	253	18	"right"	"Ilse"	"16:19:15"	"female"	49	1	5	5	1	0	702	"marteau"	"1"	"-spelling"	1
"253_1"	253	18	"right"	"Ilse"	"16:19:15"	"female"	50	1	5	5	1	0	981	"esquif"	"1"	"-spelling"	1
"253_1"	253	18	"right"	"Ilse"	"16:19:15"	"female"	51	1	5	5	1	0	1533	"treillage"	"1"	"-spelling"	1
"253_1"	253	18	"right"	"Ilse"	"16:19:15"	"female"	52	1	5	5	1	0	968	"dauphin"	"1"	"-spelling"	1
