"set"	"subject"	"subject_set"	"session"	"list"	"group"	"age"	"sex"	"hand"	"assist"	"trial"	"file"	"stimulus"	"is_target"	"is_word"	"targettype"	"red"	"is_schwa"	"duration"	"rt"	"rt_end"	"response"	"correctness"	"log_rt"	"preceding_rt"	"log_preceding_rt"	"voctest_correctness"	"jaar"	"spreken"	"luisteren"	"lezen"	"schrijven"	"av_prof"	"lextale.scores"	"p_universally"	"p_french"	"p_dutch"	"r"
"t01"	7	"7 t01"	1	"B2"	"1"	19	"female"	"right"	"Other"	23	"t01_2_p4_2_mono.wav"	"la b'lette"	"yes"	"yes"	"mismatch"	"r"	"yes"	879	1371	492	5	"yes"	7.22329567956231	1888	7.54327334670545	"correct"	3	1	1	1	1	1	-6	"L"	"L"	"L"	"no"
"t01"	13	"13 t01"	1	"D1"	"1"	21	"male"	"right"	"Nadia"	142	"t01_1_p2_2_mono.wav"	"la belette"	"yes"	"yes"	"match"	"u"	"yes"	930	1157	227	5	"yes"	7.05358572719368	1751	7.46794233228585	"correct"	3	3	3	4	2	3	3	"L"	"L"	"L"	"no"
"t01"	36	"36 t01"	1	"C2"	"2"	21	"male"	"right"	"Other"	63	"t01_1_p2_2_mono.wav"	"la belette"	"yes"	"yes"	"mismatch"	"u"	"yes"	930	1824	894	5	"yes"	7.50878717063428	2133	7.66528471847135	"correct"	3	2	3	4	2	2.75	-12	"L"	"L"	"L"	"no"
"t01"	41	"41 t01"	1	"D1"	"1"	19	"male"	"right"	"Ilse"	142	"t01_1_p2_2_mono.wav"	"la belette"	"yes"	"yes"	"match"	"u"	"yes"	930	1108	178	5	"yes"	7.01031186730723	1412	7.25276241805319	"wrong"	3	3	3	3	2	2.75	-6	"L"	"L"	"L"	"no"
"t01"	35	"35 t01"	1	"C2"	"1"	20	"male"	"left"	"Other"	63	"t01_1_p2_2_mono.wav"	"la belette"	"yes"	"yes"	"match"	"u"	"yes"	930	1294	364	1	"yes"	7.16549347506085	1193	7.08422642209792	"correct"	3	2	2	2	1	1.75	4	"L"	"L"	"L"	"no"
"t01"	23	"23 t01"	1	"B2"	"1"	23	"female"	"right"	"Ferdy"	23	"t01_2_p4_2_mono.wav"	"la b'lette"	"yes"	"yes"	"mismatch"	"r"	"yes"	879	1559	680	5	"yes"	7.35179986905778	1597	7.37588214821501	"correct"	3	3	2	2	1	2	NA	"L"	"L"	"L"	"no"
"t01"	26	"26 t01"	1	"C1"	"2"	23	"female"	"right"	"Other"	63	"t01_2_p4_2_mono.wav"	"la b'lette"	"yes"	"yes"	"match"	"r"	"yes"	879	1650	771	5	"yes"	7.40853056689463	1406	7.24850407237061	"correct"	3	1	2	2	1	1.5	-3	"L"	"L"	"L"	"no"
"t01"	32	"32 t01"	1	"D2"	"2"	18	"male"	"right"	"Other"	142	"t01_2_p4_2_mono.wav"	"la b'lette"	"yes"	"yes"	"match"	"r"	"yes"	879	2394	1515	5	"yes"	7.78072088611792	3993	8.29229810706322	"correct"	3	1	1	1	1	1	-4	"L"	"L"	"L"	"no"
"t01"	9	"9 t01"	1	"C1"	"1"	18	"female"	"right"	"Other"	63	"t01_2_p4_2_mono.wav"	"la b'lette"	"yes"	"yes"	"mismatch"	"r"	"yes"	879	1592	713	5	"yes"	7.37274636640433	1808	7.49997654095212	"wrong"	3	4	3	4	2	3.25	-3	"L"	"L"	"L"	"no"
"t01"	1	"1 t01"	1	"A1"	"1"	22	"female"	"right"	"Other"	116	"t01_2_p4_2_mono.wav"	"la b'lette"	"yes"	"yes"	"mismatch"	"r"	"yes"	879	1150	271	5	"yes"	7.0475172213573	910	6.8134445995109	"correct"	3	1	2	2	1	1.5	-7	"L"	"L"	"L"	"no"
"t01"	30	"30 t01"	1	"D1"	"2"	18	"female"	"right"	"Nadia"	142	"t01_1_p2_2_mono.wav"	"la belette"	"yes"	"yes"	"mismatch"	"u"	"yes"	930	1275	345	5	"yes"	7.15070145759253	1013	6.92067150424868	"wrong"	3	1	2	2	1	1.5	1	"L"	"L"	"L"	"no"
"t01"	5	"5 t01"	1	"B1"	"1"	20	"female"	"right"	"Other"	23	"t01_1_p2_2_mono.wav"	"la belette"	"yes"	"yes"	"match"	"u"	"yes"	930	1115	185	5	"yes"	7.01660968389422	1360	7.2152399787301	"correct"	2	2	2	2	3	2.25	-3	"L"	"L"	"L"	"no"
"t01"	15	"15 t01"	1	"D1"	"1"	20	"female"	"right"	"Other"	142	"t01_1_p2_2_mono.wav"	"la belette"	"yes"	"yes"	"match"	"u"	"yes"	930	1274	344	5	"yes"	7.14991683613211	3348	8.11611843160937	"correct"	6	4	3	3	3	3.25	-4	"L"	"L"	"L"	"no"
"t01"	20	"20 t01"	1	"A2"	"2"	21	"male"	"right"	"Other"	116	"t01_1_p2_2_mono.wav"	"la belette"	"yes"	"yes"	"mismatch"	"u"	"yes"	930	1200	270	5	"yes"	7.09007683577609	1225	7.11069612297883	"correct"	2	3	2	2	1	2	-2	"L"	"L"	"L"	"no"
"t01"	21	"21 t01"	1	"B1"	"1"	18	"female"	"right"	"Other"	23	"t01_1_p2_2_mono.wav"	"la belette"	"yes"	"yes"	"match"	"u"	"yes"	930	1172	242	5	"yes"	7.06646697013696	1273	7.14913159855741	"correct"	3	2	1	2	2	1.75	-5	"L"	"L"	"L"	"no"
"t01"	28	"28 t01"	1	"C2"	"2"	22	"female"	"right"	"Ferdy"	63	"t01_1_p2_2_mono.wav"	"la belette"	"yes"	"yes"	"mismatch"	"u"	"yes"	930	1323	393	5	"yes"	7.18765716411496	1677	7.42476176182321	"correct"	2	1	2	1	1	1.25	-8	"L"	"L"	"L"	"no"
"t01"	45	"45 t01"	1	"A2"	"1"	19	"male"	"right"	"Ilse"	116	"t01_1_p2_2_mono.wav"	"la belette"	"yes"	"yes"	"match"	"u"	"yes"	930	904	-26	5	"yes"	6.80682936039218	1004	6.91174730025167	"correct"	3	1	2	1	1	1.25	-6	"L"	"L"	"L"	"no"
"t01"	27	"27 t01"	1	"C2"	"1"	22	"male"	"right"	"Other"	63	"t01_1_p2_2_mono.wav"	"la belette"	"yes"	"yes"	"match"	"u"	"yes"	930	1062	132	5	"yes"	6.96790920180188	1166	7.06133436691044	"correct"	3	1	2	2	1	1.5	11	"L"	"L"	"L"	"no"
"t01"	2	"2 t01"	1	"A1"	"2"	21	"female"	"right"	"Other"	116	"t01_2_p4_2_mono.wav"	"la b'lette"	"yes"	"yes"	"match"	"r"	"yes"	879	1593	714	5	"yes"	7.37337430991005	1317	7.18311170174328	"correct"	3	2	2	3	2	2.25	-2	"L"	"L"	"L"	"no"
"t01"	10	"10 t01"	1	"C1"	"2"	19	"female"	"left"	"Other"	63	"t01_2_p4_2_mono.wav"	"la b'lette"	"yes"	"yes"	"match"	"r"	"yes"	879	1249	370	1	"yes"	7.13009851012558	1247	7.12849594568004	"correct"	3	3	1	2	3	2.25	4	"L"	"L"	"L"	"no"
"t01"	24	"24 t01"	1	"B2"	"2"	18	"female"	"right"	"Ferdy"	23	"t01_2_p4_2_mono.wav"	"la b'lette"	"yes"	"yes"	"match"	"r"	"yes"	879	1264	385	5	"yes"	7.1420365747068	2144	7.67042852219069	"correct"	3	1	3	3	1	2	2	"L"	"L"	"L"	"no"
"t01"	6	"6 t01"	1	"B1"	"2"	20	"female"	"right"	"Other"	23	"t01_1_p2_2_mono.wav"	"la belette"	"yes"	"yes"	"mismatch"	"u"	"yes"	930	1343	413	5	"yes"	7.20266119652324	1483	7.30182234213793	"correct"	3	1	2	2	1	1.5	-5	"L"	"L"	"L"	"no"
"t01"	47	"47 t01"	1	"B1"	"1"	23	"female"	"left"	"Ferdy"	23	"t01_1_p2_2_mono.wav"	"la belette"	"yes"	"yes"	"match"	"u"	"yes"	930	1345	415	1	"yes"	7.20414929203594	1872	7.53476265703754	"correct"	3	1	1	1	1	1	-7	"L"	"L"	"L"	"no"
"t01"	14	"14 t01"	1	"D1"	"2"	19	"female"	"right"	"Other"	142	"t01_1_p2_2_mono.wav"	"la belette"	"yes"	"yes"	"mismatch"	"u"	"yes"	930	1153	223	5	"yes"	7.05012252026906	1129	7.02908756414966	"correct"	3	2	1	2	2	1.75	1	"L"	"L"	"L"	"no"
"t01"	25	"25 t01"	1	"C1"	"1"	18	"female"	"right"	"Ferdy"	63	"t01_2_p4_2_mono.wav"	"la b'lette"	"yes"	"yes"	"mismatch"	"r"	"yes"	879	1344	465	5	"yes"	7.20340552108309	1394	7.23993259132047	"correct"	6	4	4	4	3	3.75	-15	"L"	"L"	"L"	"no"
"t01"	33	"33 t01"	1	"C1"	"1"	18	"female"	"right"	"Ilse"	63	"t01_2_p4_2_mono.wav"	"la b'lette"	"yes"	"yes"	"mismatch"	"r"	"yes"	879	1747	868	5	"yes"	7.46565531013406	1525	7.32974968904151	"correct"	3	2	3	4	2	2.75	6	"L"	"L"	"L"	"no"
"t01"	34	"34 t01"	1	"C1"	"2"	18	"female"	"right"	"Ilse"	63	"t01_2_p4_2_mono.wav"	"la b'lette"	"yes"	"yes"	"match"	"r"	"yes"	879	2401	1522	5	"yes"	7.78364059622125	1430	7.26542972325395	"correct"	3	2	3	3	4	3	-5	"L"	"L"	"L"	"no"
"t01"	46	"46 t01"	1	"A2"	"2"	22	"female"	"right"	"Ilse"	116	"t01_1_p2_2_mono.wav"	"la belette"	"yes"	"yes"	"mismatch"	"u"	"yes"	930	3364	2434	5	"yes"	8.12088602109284	2241	7.71467747380093	"correct"	3	2	2	3	2	2.25	-2	"L"	"L"	"L"	"no"
"t01"	18	"18 t01"	1	"A1"	"2"	21	"male"	"right"	"Other"	116	"t01_2_p4_2_mono.wav"	"la b'lette"	"yes"	"yes"	"match"	"r"	"yes"	879	1622	743	5	"yes"	7.39141523467536	1098	7.00124562206948	"wrong"	3	2	3	4	3	3	-3	"L"	"L"	"L"	"no"
"t01"	29	"29 t01"	1	"D1"	"1"	24	"female"	"right"	"Nadia"	142	"t01_1_p2_2_mono.wav"	"la belette"	"yes"	"yes"	"match"	"u"	"yes"	930	1584	654	5	"yes"	7.36770857237437	1535	7.3362856600213	"correct"	6	2	3	4	2	2.75	-9	"L"	"L"	"L"	"no"
"t01"	22	"22 t01"	1	"B1"	"2"	22	"female"	"right"	"Ferdy"	23	"t01_1_p2_2_mono.wav"	"la belette"	"yes"	"yes"	"mismatch"	"u"	"yes"	930	1006	76	5	"yes"	6.91373735065968	1245	7.12689080889881	"correct"	3	2	2	2	2	2	-6	"L"	"L"	"L"	"no"
"t01"	51	"51 t01"	1	"B1"	"2"	18	"female"	"right"	"Nadia"	23	"t01_1_p2_2_mono.wav"	"la belette"	"yes"	"yes"	"mismatch"	"u"	"yes"	930	1384	454	5	"yes"	7.23273313617761	1588	7.37023064180708	"correct"	6	4	4	4	4	4	-7	"L"	"L"	"L"	"no"
"t01"	43	"43 t01"	1	"A1"	"1"	18	"male"	"right"	"Ilse"	116	"t01_2_p4_2_mono.wav"	"la b'lette"	"yes"	"yes"	"mismatch"	"r"	"yes"	879	1452	573	5	"yes"	7.28069719538474	1665	7.41758040241454	"correct"	3	3	1	5	2	2.75	11	"L"	"L"	"L"	"no"
"t01"	50	"50 t01"	1	"B2"	"2"	18	"female"	"right"	"Nadia"	23	"t01_2_p4_2_mono.wav"	"la b'lette"	"yes"	"yes"	"match"	"r"	"yes"	879	1610	731	5	"yes"	7.38398945797851	1879	7.53849499941346	"correct"	3	2	2	5	2	2.75	8	"L"	"L"	"L"	"no"
"t02"	23	"23 t02"	1	"B2"	"1"	23	"female"	"right"	"Ferdy"	33	"t02_2_p3_2_mono.wav"	"la l'vrette"	"yes"	"yes"	"mismatch"	"r"	"yes"	888	1282	394	5	"yes"	7.15617663748062	1416	7.25559127425367	"wrong"	3	3	2	2	1	2	NA	"I"	"I"	"I"	"no"
"t02"	15	"15 t02"	1	"D1"	"1"	20	"female"	"right"	"Other"	56	"t02_1_p1_2_mono.wav"	"la levrette"	"yes"	"yes"	"match"	"u"	"yes"	856	2722	1866	5	"yes"	7.90912218321141	4651	8.4448375292241	"wrong"	6	4	3	3	3	3.25	-4	"I"	"I"	"I"	"no"
"t02"	36	"36 t02"	1	"C2"	"2"	21	"male"	"right"	"Other"	171	"t02_2_p3_2_mono.wav"	"la l'vrette"	"yes"	"yes"	"match"	"r"	"yes"	888	1285	397	5	"yes"	7.15851399732932	2106	7.65254569269392	"correct"	3	2	3	4	2	2.75	-12	"I"	"I"	"I"	"no"
"t02"	7	"7 t02"	1	"B2"	"1"	19	"female"	"right"	"Other"	33	"t02_2_p3_2_mono.wav"	"la l'vrette"	"yes"	"yes"	"mismatch"	"r"	"yes"	888	1181	293	5	"yes"	7.07411681619736	1913	7.55642796944025	"correct"	3	1	1	1	1	1	-6	"I"	"I"	"I"	"no"
"t02"	1	"1 t02"	1	"A1"	"1"	22	"female"	"right"	"Other"	118	"t02_1_p1_2_mono.wav"	"la levrette"	"yes"	"yes"	"match"	"u"	"yes"	856	1057	201	5	"yes"	6.96318998587024	1645	7.40549566319947	"correct"	3	1	2	2	1	1.5	-7	"I"	"I"	"I"	"no"
"t02"	5	"5 t02"	1	"B1"	"1"	20	"female"	"right"	"Other"	33	"t02_1_p1_2_mono.wav"	"la levrette"	"yes"	"yes"	"match"	"u"	"yes"	856	2113	1257	5	"yes"	7.65586401761606	1090	6.99393297522319	"correct"	2	2	2	2	3	2.25	-3	"I"	"I"	"I"	"no"
"t02"	49	"49 t02"	1	"B2"	"1"	19	"female"	"left"	"Other"	33	"t02_2_p3_2_mono.wav"	"la l'vrette"	"yes"	"yes"	"mismatch"	"r"	"yes"	888	1286	398	1	"yes"	7.15929190479756	1549	7.34536484041687	"correct"	3	1	1	2	2	1.5	-2	"I"	"I"	"I"	"no"
"t02"	26	"26 t02"	1	"C1"	"2"	23	"female"	"right"	"Other"	171	"t02_1_p1_2_mono.wav"	"la levrette"	"yes"	"yes"	"mismatch"	"u"	"yes"	856	2256	1400	5	"yes"	7.72134861261795	1466	7.2902928824466	"correct"	3	1	2	2	1	1.5	-3	"I"	"I"	"I"	"no"
"t02"	45	"45 t02"	1	"A2"	"1"	19	"male"	"right"	"Ilse"	118	"t02_2_p3_2_mono.wav"	"la l'vrette"	"yes"	"yes"	"mismatch"	"r"	"yes"	888	1478	590	5	"yes"	7.29844510150815	9212	9.12826226094058	"correct"	3	1	2	1	1	1.25	-6	"I"	"I"	"I"	"no"
"t02"	16	"16 t02"	1	"D2"	"2"	19	"female"	"right"	"Other"	56	"t02_2_p3_2_mono.wav"	"la l'vrette"	"yes"	"yes"	"match"	"r"	"yes"	888	1335	447	5	"yes"	7.19668657083435	1182	7.07496319796604	"wrong"	5	1	2	1	1	1.25	1	"I"	"I"	"I"	"no"
"t02"	8	"8 t02"	1	"B2"	"2"	22	"female"	"right"	"Other"	33	"t02_2_p3_2_mono.wav"	"la l'vrette"	"yes"	"yes"	"match"	"r"	"yes"	888	1605	717	5	"yes"	7.38087903556412	1417	7.25629723969068	"correct"	3	2	2	2	1	1.75	-4	"I"	"I"	"I"	"no"
"t02"	35	"35 t02"	1	"C2"	"1"	20	"male"	"left"	"Other"	171	"t02_2_p3_2_mono.wav"	"la l'vrette"	"yes"	"yes"	"mismatch"	"r"	"yes"	888	3507	2619	1	"yes"	8.16251625014018	1445	7.27586460054653	"wrong"	3	2	2	2	1	1.75	4	"I"	"I"	"I"	"no"
"t02"	21	"21 t02"	1	"B1"	"1"	18	"female"	"right"	"Other"	33	"t02_1_p1_2_mono.wav"	"la levrette"	"yes"	"yes"	"match"	"u"	"yes"	856	1420	564	5	"yes"	7.25841215059531	1642	7.40367029001237	"wrong"	3	2	1	2	2	1.75	-5	"I"	"I"	"I"	"no"
"t02"	47	"47 t02"	1	"B1"	"1"	23	"female"	"left"	"Ferdy"	33	"t02_1_p1_2_mono.wav"	"la levrette"	"yes"	"yes"	"match"	"u"	"yes"	856	1184	328	1	"yes"	7.07665381544395	2013	7.60738142563979	"correct"	3	1	1	1	1	1	-7	"I"	"I"	"I"	"no"
"t02"	17	"17 t02"	1	"A1"	"1"	18	"male"	"right"	"Other"	118	"t02_1_p1_2_mono.wav"	"la levrette"	"yes"	"yes"	"match"	"u"	"yes"	856	2006	1150	5	"yes"	7.60389796852188	2970	7.99631723179675	"correct"	3	2	1	2	2	1.75	-5	"I"	"I"	"I"	"no"
"t02"	13	"13 t02"	1	"D1"	"1"	21	"male"	"right"	"Nadia"	56	"t02_1_p1_2_mono.wav"	"la levrette"	"yes"	"yes"	"match"	"u"	"yes"	856	1309	453	5	"yes"	7.1770187659099	6081	8.71292443512011	"correct"	3	3	3	4	2	3	3	"I"	"I"	"I"	"no"
"t02"	12	"12 t02"	1	"C2"	"2"	20	"female"	"right"	"Ferdy"	171	"t02_2_p3_2_mono.wav"	"la l'vrette"	"yes"	"yes"	"match"	"r"	"yes"	888	1102	214	5	"yes"	7.00488198971286	1121	7.02197642307216	"wrong"	2	2	2	1	1	1.5	-9	"I"	"I"	"I"	"no"
"t02"	18	"18 t02"	1	"A1"	"2"	21	"male"	"right"	"Other"	118	"t02_1_p1_2_mono.wav"	"la levrette"	"yes"	"yes"	"mismatch"	"u"	"yes"	856	1615	759	5	"yes"	7.38709023565676	1327	7.19067603433221	"correct"	3	2	3	4	3	3	-3	"I"	"I"	"I"	"no"
"t02"	28	"28 t02"	1	"C2"	"2"	22	"female"	"right"	"Ferdy"	171	"t02_2_p3_2_mono.wav"	"la l'vrette"	"yes"	"yes"	"match"	"r"	"yes"	888	1460	572	5	"yes"	7.28619171470238	1056	6.96224346426621	"correct"	2	1	2	1	1	1.25	-8	"I"	"I"	"I"	"no"
"t02"	10	"10 t02"	1	"C1"	"2"	19	"female"	"left"	"Other"	171	"t02_1_p1_2_mono.wav"	"la levrette"	"yes"	"yes"	"mismatch"	"u"	"yes"	856	1235	379	1	"yes"	7.11882624906208	1550	7.34601020991329	"correct"	3	3	1	2	3	2.25	4	"I"	"I"	"I"	"no"
"t02"	9	"9 t02"	1	"C1"	"1"	18	"female"	"right"	"Other"	171	"t02_1_p1_2_mono.wav"	"la levrette"	"yes"	"yes"	"match"	"u"	"yes"	856	2576	1720	5	"yes"	7.85399308722424	1840	7.51752085060303	"correct"	3	4	3	4	2	3.25	-3	"I"	"I"	"I"	"no"
"t02"	33	"33 t02"	1	"C1"	"1"	18	"female"	"right"	"Ilse"	171	"t02_1_p1_2_mono.wav"	"la levrette"	"yes"	"yes"	"match"	"u"	"yes"	856	1246	390	5	"yes"	7.1276936993474	996	6.9037472575846	"correct"	3	2	3	4	2	2.75	6	"I"	"I"	"I"	"no"
"t02"	34	"34 t02"	1	"C1"	"2"	18	"female"	"right"	"Ilse"	171	"t02_1_p1_2_mono.wav"	"la levrette"	"yes"	"yes"	"mismatch"	"u"	"yes"	856	1110	254	5	"yes"	7.01211529430638	1337	7.19818357710194	"correct"	3	2	3	3	4	3	-5	"I"	"I"	"I"	"no"
"t02"	2	"2 t02"	1	"A1"	"2"	21	"female"	"right"	"Other"	118	"t02_1_p1_2_mono.wav"	"la levrette"	"yes"	"yes"	"mismatch"	"u"	"yes"	856	1256	400	5	"yes"	7.13568734702814	1686	7.4301141385618	"correct"	3	2	2	3	2	2.25	-2	"I"	"I"	"I"	"no"
"t02"	6	"6 t02"	1	"B1"	"2"	20	"female"	"right"	"Other"	33	"t02_1_p1_2_mono.wav"	"la levrette"	"yes"	"yes"	"mismatch"	"u"	"yes"	856	1089	233	5	"yes"	6.99301512293296	1230	7.11476944836646	"correct"	3	1	2	2	1	1.5	-5	"I"	"I"	"I"	"no"
"t02"	50	"50 t02"	1	"B2"	"2"	18	"female"	"right"	"Nadia"	33	"t02_2_p3_2_mono.wav"	"la l'vrette"	"yes"	"yes"	"match"	"r"	"yes"	888	1220	332	5	"yes"	7.1066061377273	1288	7.1608459066643	"correct"	3	2	2	5	2	2.75	8	"I"	"I"	"I"	"no"
"t02"	30	"30 t02"	1	"D1"	"2"	18	"female"	"right"	"Nadia"	56	"t02_1_p1_2_mono.wav"	"la levrette"	"yes"	"yes"	"mismatch"	"u"	"yes"	856	1720	864	5	"yes"	7.4500795698075	1570	7.35883089834235	"correct"	3	1	2	2	1	1.5	1	"I"	"I"	"I"	"no"
"t02"	22	"22 t02"	1	"B1"	"2"	22	"female"	"right"	"Ferdy"	33	"t02_1_p1_2_mono.wav"	"la levrette"	"yes"	"yes"	"mismatch"	"u"	"yes"	856	1110	254	5	"yes"	7.01211529430638	2931	7.98309894071089	"correct"	3	2	2	2	2	2	-6	"I"	"I"	"I"	"no"
"t02"	32	"32 t02"	1	"D2"	"2"	18	"male"	"right"	"Other"	56	"t02_2_p3_2_mono.wav"	"la l'vrette"	"yes"	"yes"	"match"	"r"	"yes"	888	1441	553	5	"yes"	7.27309259599952	2792	7.93451346388226	"wrong"	3	1	1	1	1	1	-4	"I"	"I"	"I"	"no"
"t02"	25	"25 t02"	1	"C1"	"1"	18	"female"	"right"	"Ferdy"	171	"t02_1_p1_2_mono.wav"	"la levrette"	"yes"	"yes"	"match"	"u"	"yes"	856	2194	1338	5	"yes"	7.69348164083518	1147	7.04490511712937	"correct"	6	4	4	4	3	3.75	-15	"I"	"I"	"I"	"no"
"t02"	3	"3 t02"	1	"A2"	"1"	23	"female"	"left"	"Other"	118	"t02_2_p3_2_mono.wav"	"la l'vrette"	"yes"	"yes"	"mismatch"	"r"	"yes"	888	1165	277	1	"yes"	7.0604763659998	1762	7.47420480649612	"correct"	3.5	2	2	3	2	2.25	-3	"I"	"I"	"I"	"no"
"t02"	46	"46 t02"	1	"A2"	"2"	22	"female"	"right"	"Ilse"	118	"t02_2_p3_2_mono.wav"	"la l'vrette"	"yes"	"yes"	"match"	"r"	"yes"	888	1620	732	5	"yes"	7.39018142822643	2394	7.78072088611792	"correct"	3	2	2	3	2	2.25	-2	"I"	"I"	"I"	"no"
"t02"	43	"43 t02"	1	"A1"	"1"	18	"male"	"right"	"Ilse"	118	"t02_1_p1_2_mono.wav"	"la levrette"	"yes"	"yes"	"match"	"u"	"yes"	856	1232	376	5	"yes"	7.11639414409346	1381	7.23056315340929	"correct"	3	3	1	5	2	2.75	11	"I"	"I"	"I"	"no"
"t02"	51	"51 t02"	1	"B1"	"2"	18	"female"	"right"	"Nadia"	33	"t02_1_p1_2_mono.wav"	"la levrette"	"yes"	"yes"	"mismatch"	"u"	"yes"	856	1729	873	5	"yes"	7.45529848568329	1921	7.56060116276856	"wrong"	6	4	4	4	4	4	-7	"I"	"I"	"I"	"no"
"t02"	29	"29 t02"	1	"D1"	"1"	24	"female"	"right"	"Nadia"	56	"t02_1_p1_2_mono.wav"	"la levrette"	"yes"	"yes"	"match"	"u"	"yes"	856	1502	646	5	"yes"	7.31455283232408	1874	7.53583046279837	"correct"	6	2	3	4	2	2.75	-9	"I"	"I"	"I"	"no"
"t03"	13	"13 t03"	1	"D1"	"1"	21	"male"	"right"	"Nadia"	8	"t03_1_p4_2_mono.wav"	"la menotte"	"yes"	"yes"	"match"	"u"	"yes"	947	2059	1112	5	"yes"	7.62997570702779	2888	7.96831950001272	"correct"	3	3	3	4	2	3	3	"I"	"I"	"I"	"no"
"t03"	11	"11 t03"	1	"C2"	"1"	20	"female"	"right"	"Other"	140	"t03_2_p2_2_mono.wav"	"la m'notte"	"yes"	"yes"	"mismatch"	"r"	"yes"	889	980	91	5	"yes"	6.88755257166462	1062	6.96790920180188	"correct"	3	1	2	2	1	1.5	7	"I"	"I"	"I"	"no"
"t03"	35	"35 t03"	1	"C2"	"1"	20	"male"	"left"	"Other"	140	"t03_2_p2_2_mono.wav"	"la m'notte"	"yes"	"yes"	"mismatch"	"r"	"yes"	889	1242	353	1	"yes"	7.12447826249342	2424	7.7931743471892	"correct"	3	2	2	2	1	1.75	4	"I"	"I"	"I"	"no"
"t03"	20	"20 t03"	1	"A2"	"2"	21	"male"	"right"	"Other"	136	"t03_1_p4_2_mono.wav"	"la menotte"	"yes"	"yes"	"mismatch"	"u"	"yes"	947	1773	826	5	"yes"	7.48042830607421	1536	7.33693691370762	"correct"	2	3	2	2	1	2	-2	"I"	"I"	"I"	"no"
"t03"	30	"30 t03"	1	"D1"	"2"	18	"female"	"right"	"Nadia"	8	"t03_1_p4_2_mono.wav"	"la menotte"	"yes"	"yes"	"mismatch"	"u"	"yes"	947	1363	416	5	"yes"	7.21744343169653	2198	7.69530313496357	"correct"	3	1	2	2	1	1.5	1	"I"	"I"	"I"	"no"
"t03"	49	"49 t03"	1	"B2"	"1"	19	"female"	"left"	"Other"	159	"t03_1_p4_2_mono.wav"	"la menotte"	"yes"	"yes"	"match"	"u"	"yes"	947	1135	188	1	"yes"	7.0343879299155	2206	7.69893619981345	"correct"	3	1	1	2	2	1.5	-2	"I"	"I"	"I"	"no"
"t03"	21	"21 t03"	1	"B1"	"1"	18	"female"	"right"	"Other"	159	"t03_2_p2_2_mono.wav"	"la m'notte"	"yes"	"yes"	"mismatch"	"r"	"yes"	889	1512	623	5	"yes"	7.32118855673948	1238	7.12125245324454	"correct"	3	2	1	2	2	1.75	-5	"I"	"I"	"I"	"no"
"t03"	50	"50 t03"	1	"B2"	"2"	18	"female"	"right"	"Nadia"	159	"t03_1_p4_2_mono.wav"	"la menotte"	"yes"	"yes"	"mismatch"	"u"	"yes"	947	1341	394	5	"yes"	7.20117088328168	2645	7.8804263442924	"correct"	3	2	2	5	2	2.75	8	"I"	"I"	"I"	"no"
"t03"	10	"10 t03"	1	"C1"	"2"	19	"female"	"left"	"Other"	140	"t03_1_p4_2_mono.wav"	"la menotte"	"yes"	"yes"	"mismatch"	"u"	"yes"	947	1086	139	1	"yes"	6.99025650049388	1421	7.2591161280971	"correct"	3	3	1	2	3	2.25	4	"I"	"I"	"I"	"no"
"t03"	36	"36 t03"	1	"C2"	"2"	21	"male"	"right"	"Other"	140	"t03_2_p2_2_mono.wav"	"la m'notte"	"yes"	"yes"	"match"	"r"	"yes"	889	1107	218	5	"yes"	7.00940893270864	1812	7.50218648660292	"correct"	3	2	3	4	2	2.75	-12	"I"	"I"	"I"	"no"
"t03"	15	"15 t03"	1	"D1"	"1"	20	"female"	"right"	"Other"	8	"t03_1_p4_2_mono.wav"	"la menotte"	"yes"	"yes"	"match"	"u"	"yes"	947	1318	371	5	"yes"	7.18387071506245	2616	7.86940171257709	"correct"	6	4	3	3	3	3.25	-4	"I"	"I"	"I"	"no"
"t03"	5	"5 t03"	1	"B1"	"1"	20	"female"	"right"	"Other"	159	"t03_2_p2_2_mono.wav"	"la m'notte"	"yes"	"yes"	"mismatch"	"r"	"yes"	889	1970	1081	5	"yes"	7.58578882173203	941	6.84694313958538	"correct"	2	2	2	2	3	2.25	-3	"I"	"I"	"I"	"no"
"t03"	9	"9 t03"	1	"C1"	"1"	18	"female"	"right"	"Other"	140	"t03_1_p4_2_mono.wav"	"la menotte"	"yes"	"yes"	"match"	"u"	"yes"	947	1379	432	5	"yes"	7.2291138777933	2746	7.91790058632792	"correct"	3	4	3	4	2	3.25	-3	"I"	"I"	"I"	"no"
"t03"	41	"41 t03"	1	"D1"	"1"	19	"male"	"right"	"Ilse"	8	"t03_1_p4_2_mono.wav"	"la menotte"	"yes"	"yes"	"match"	"u"	"yes"	947	2785	1838	5	"yes"	7.93200315236138	2178	7.68616230349291	"correct"	3	3	3	3	2	2.75	-6	"I"	"I"	"I"	"no"
"t03"	23	"23 t03"	1	"B2"	"1"	23	"female"	"right"	"Ferdy"	159	"t03_1_p4_2_mono.wav"	"la menotte"	"yes"	"yes"	"match"	"u"	"yes"	947	1026	79	5	"yes"	6.93342302573071	1661	7.41517510961329	"correct"	3	3	2	2	1	2	NA	"I"	"I"	"I"	"no"
"t03"	26	"26 t03"	1	"C1"	"2"	23	"female"	"right"	"Other"	140	"t03_1_p4_2_mono.wav"	"la menotte"	"yes"	"yes"	"mismatch"	"u"	"yes"	947	1714	767	5	"yes"	7.44658509915773	1378	7.2283884515736	"correct"	3	1	2	2	1	1.5	-3	"I"	"I"	"I"	"no"
"t03"	1	"1 t03"	1	"A1"	"1"	22	"female"	"right"	"Other"	136	"t03_2_p2_2_mono.wav"	"la m'notte"	"yes"	"yes"	"mismatch"	"r"	"yes"	889	1070	181	5	"yes"	6.97541392745595	1322	7.18690102041163	"correct"	3	1	2	2	1	1.5	-7	"I"	"I"	"I"	"no"
"t03"	14	"14 t03"	1	"D1"	"2"	19	"female"	"right"	"Other"	8	"t03_1_p4_2_mono.wav"	"la menotte"	"yes"	"yes"	"mismatch"	"u"	"yes"	947	2556	1609	5	"yes"	7.84619881549743	1944	7.57250298502038	"correct"	3	2	1	2	2	1.75	1	"I"	"I"	"I"	"no"
"t03"	33	"33 t03"	1	"C1"	"1"	18	"female"	"right"	"Ilse"	140	"t03_1_p4_2_mono.wav"	"la menotte"	"yes"	"yes"	"match"	"u"	"yes"	947	1411	464	5	"yes"	7.25205395185281	2914	7.97728198675515	"correct"	3	2	3	4	2	2.75	6	"I"	"I"	"I"	"no"
"t03"	45	"45 t03"	1	"A2"	"1"	19	"male"	"right"	"Ilse"	136	"t03_1_p4_2_mono.wav"	"la menotte"	"yes"	"yes"	"match"	"u"	"yes"	947	1902	955	5	"yes"	7.55066124310534	1007	6.91473089271856	"correct"	3	1	2	1	1	1.25	-6	"I"	"I"	"I"	"no"
"t03"	27	"27 t03"	1	"C2"	"1"	22	"male"	"right"	"Other"	140	"t03_2_p2_2_mono.wav"	"la m'notte"	"yes"	"yes"	"mismatch"	"r"	"yes"	889	1337	448	5	"yes"	7.19818357710194	1349	7.20711885620776	"correct"	3	1	2	2	1	1.5	11	"I"	"I"	"I"	"no"
"t03"	22	"22 t03"	1	"B1"	"2"	22	"female"	"right"	"Ferdy"	159	"t03_2_p2_2_mono.wav"	"la m'notte"	"yes"	"yes"	"match"	"r"	"yes"	889	1126	237	5	"yes"	7.02642680869964	1416	7.25559127425367	"correct"	3	2	2	2	2	2	-6	"I"	"I"	"I"	"no"
"t03"	16	"16 t03"	1	"D2"	"2"	19	"female"	"right"	"Other"	8	"t03_2_p2_2_mono.wav"	"la m'notte"	"yes"	"yes"	"match"	"r"	"yes"	889	1274	385	5	"yes"	7.14991683613211	1504	7.31588350450979	"correct"	5	1	2	1	1	1.25	1	"I"	"I"	"I"	"no"
"t03"	34	"34 t03"	1	"C1"	"2"	18	"female"	"right"	"Ilse"	140	"t03_1_p4_2_mono.wav"	"la menotte"	"yes"	"yes"	"mismatch"	"u"	"yes"	947	1760	813	5	"yes"	7.4730690880322	1951	7.57609734062311	"correct"	3	2	3	3	4	3	-5	"I"	"I"	"I"	"no"
"t03"	46	"46 t03"	1	"A2"	"2"	22	"female"	"right"	"Ilse"	136	"t03_1_p4_2_mono.wav"	"la menotte"	"yes"	"yes"	"mismatch"	"u"	"yes"	947	1599	652	5	"yes"	7.37713371283395	2501	7.82444593087762	"correct"	3	2	2	3	2	2.25	-2	"I"	"I"	"I"	"no"
"t03"	28	"28 t03"	1	"C2"	"2"	22	"female"	"right"	"Ferdy"	140	"t03_2_p2_2_mono.wav"	"la m'notte"	"yes"	"yes"	"match"	"r"	"yes"	889	1971	1082	5	"yes"	7.58629630715272	1409	7.25063551189868	"correct"	2	1	2	1	1	1.25	-8	"I"	"I"	"I"	"no"
"t03"	8	"8 t03"	1	"B2"	"2"	22	"female"	"right"	"Other"	159	"t03_1_p4_2_mono.wav"	"la menotte"	"yes"	"yes"	"mismatch"	"u"	"yes"	947	1262	315	5	"yes"	7.14045304310116	1925	7.56268124672188	"correct"	3	2	2	2	1	1.75	-4	"I"	"I"	"I"	"no"
"t03"	2	"2 t03"	1	"A1"	"2"	21	"female"	"right"	"Other"	136	"t03_2_p2_2_mono.wav"	"la m'notte"	"yes"	"yes"	"match"	"r"	"yes"	889	1262	373	5	"yes"	7.14045304310116	1250	7.13089883029635	"correct"	3	2	2	3	2	2.25	-2	"I"	"I"	"I"	"no"
"t03"	32	"32 t03"	1	"D2"	"2"	18	"male"	"right"	"Other"	8	"t03_2_p2_2_mono.wav"	"la m'notte"	"yes"	"yes"	"match"	"r"	"yes"	889	1568	679	5	"yes"	7.35755620091035	2246	7.71690613529839	"correct"	3	1	1	1	1	1	-4	"I"	"I"	"I"	"no"
"t03"	51	"51 t03"	1	"B1"	"2"	18	"female"	"right"	"Nadia"	159	"t03_2_p2_2_mono.wav"	"la m'notte"	"yes"	"yes"	"match"	"r"	"yes"	889	1394	505	5	"yes"	7.23993259132047	1146	7.04403289727469	"correct"	6	4	4	4	4	4	-7	"I"	"I"	"I"	"no"
"t03"	29	"29 t03"	1	"D1"	"1"	24	"female"	"right"	"Nadia"	8	"t03_1_p4_2_mono.wav"	"la menotte"	"yes"	"yes"	"match"	"u"	"yes"	947	1241	294	5	"yes"	7.12367278520461	1444	7.27517231945277	"correct"	6	2	3	4	2	2.75	-9	"I"	"I"	"I"	"no"
"t03"	43	"43 t03"	1	"A1"	"1"	18	"male"	"right"	"Ilse"	136	"t03_2_p2_2_mono.wav"	"la m'notte"	"yes"	"yes"	"mismatch"	"r"	"yes"	889	1090	201	5	"yes"	6.99393297522319	1552	7.34729970074316	"correct"	3	3	1	5	2	2.75	11	"I"	"I"	"I"	"no"
"t03"	42	"42 t03"	1	"D2"	"1"	20	"male"	"right"	"Ilse"	8	"t03_2_p2_2_mono.wav"	"la m'notte"	"yes"	"yes"	"mismatch"	"r"	"yes"	889	1375	486	5	"yes"	7.22620901010067	1675	7.42356844425917	"correct"	3	2	2	3	1	2	5	"I"	"I"	"I"	"no"
"t03"	25	"25 t03"	1	"C1"	"1"	18	"female"	"right"	"Ferdy"	140	"t03_1_p4_2_mono.wav"	"la menotte"	"yes"	"yes"	"match"	"u"	"yes"	947	1073	126	5	"yes"	6.9782137426307	3132	8.04942705711069	"correct"	6	4	4	4	3	3.75	-15	"I"	"I"	"I"	"no"
"t03"	17	"17 t03"	1	"A1"	"1"	18	"male"	"right"	"Other"	136	"t03_2_p2_2_mono.wav"	"la m'notte"	"yes"	"yes"	"mismatch"	"r"	"yes"	889	1683	794	5	"yes"	7.42833319419081	3005	8.00803284696931	"correct"	3	2	1	2	2	1.75	-5	"I"	"I"	"I"	"no"
"t05"	1	"1 t05"	1	"A1"	"1"	22	"female"	"right"	"Other"	148	"t05_2_p3_2_mono.wav"	"le g'nièvre"	"yes"	"yes"	"mismatch"	"r"	"yes"	943	978	35	5	"yes"	6.88550967003482	992	6.89972310728487	"correct"	3	1	2	2	1	1.5	-7	"L"	"I"	"I"	"no"
"t05"	23	"23 t05"	1	"B2"	"1"	23	"female"	"right"	"Ferdy"	6	"t05_2_p3_2_mono.wav"	"le g'nièvre"	"yes"	"yes"	"mismatch"	"r"	"yes"	943	1193	250	5	"yes"	7.08422642209792	1402	7.24565506759454	"correct"	3	3	2	2	1	2	NA	"L"	"I"	"I"	"no"
"t05"	24	"24 t05"	1	"B2"	"2"	18	"female"	"right"	"Ferdy"	6	"t05_2_p3_2_mono.wav"	"le g'nièvre"	"yes"	"yes"	"match"	"r"	"yes"	943	1522	579	5	"yes"	7.32778053842163	1802	7.49665243816828	"correct"	3	1	3	3	1	2	2	"L"	"I"	"I"	"no"
"t05"	20	"20 t05"	1	"A2"	"2"	21	"male"	"right"	"Other"	148	"t05_1_p2_2_mono.wav"	"le genièvre"	"yes"	"yes"	"mismatch"	"u"	"yes"	967	3478	2511	5	"yes"	8.15421269491423	1644	7.40488757561612	"correct"	2	3	2	2	1	2	-2	"L"	"I"	"I"	"no"
"t05"	26	"26 t05"	1	"C1"	"2"	23	"female"	"right"	"Other"	59	"t05_1_p2_2_mono.wav"	"le genièvre"	"yes"	"yes"	"mismatch"	"u"	"yes"	967	3082	2115	5	"yes"	8.03333401588006	1583	7.36707705988101	"correct"	3	1	2	2	1	1.5	-3	"L"	"I"	"I"	"no"
"t05"	49	"49 t05"	1	"B2"	"1"	19	"female"	"left"	"Other"	6	"t05_2_p3_2_mono.wav"	"le g'nièvre"	"yes"	"yes"	"mismatch"	"r"	"yes"	943	1806	863	1	"yes"	7.49886973397693	2184	7.6889133368648	"correct"	3	1	1	2	2	1.5	-2	"L"	"I"	"I"	"no"
"t05"	3	"3 t05"	1	"A2"	"1"	23	"female"	"left"	"Other"	148	"t05_1_p2_2_mono.wav"	"le genièvre"	"yes"	"yes"	"match"	"u"	"yes"	967	1438	471	1	"yes"	7.27100853828099	994	6.90173720665657	"correct"	3.5	2	2	3	2	2.25	-3	"L"	"I"	"I"	"no"
"t05"	36	"36 t05"	1	"C2"	"2"	21	"male"	"right"	"Other"	59	"t05_2_p3_2_mono.wav"	"le g'nièvre"	"yes"	"yes"	"match"	"r"	"yes"	943	1685	742	5	"yes"	7.42952084278646	1354	7.21081845347222	"correct"	3	2	3	4	2	2.75	-12	"L"	"I"	"I"	"no"
"t05"	45	"45 t05"	1	"A2"	"1"	19	"male"	"right"	"Ilse"	148	"t05_1_p2_2_mono.wav"	"le genièvre"	"yes"	"yes"	"match"	"u"	"yes"	967	976	9	5	"yes"	6.88346258641309	980	6.88755257166462	"correct"	3	1	2	1	1	1.25	-6	"L"	"I"	"I"	"no"
"t05"	5	"5 t05"	1	"B1"	"1"	20	"female"	"right"	"Other"	6	"t05_1_p2_2_mono.wav"	"le genièvre"	"yes"	"yes"	"match"	"u"	"yes"	967	1330	363	5	"yes"	7.1929342212158	1612	7.38523092306657	"correct"	2	2	2	2	3	2.25	-3	"L"	"I"	"I"	"no"
"t05"	6	"6 t05"	1	"B1"	"2"	20	"female"	"right"	"Other"	6	"t05_1_p2_2_mono.wav"	"le genièvre"	"yes"	"yes"	"mismatch"	"u"	"yes"	967	1184	217	5	"yes"	7.07665381544395	1373	7.22475340576797	"correct"	3	1	2	2	1	1.5	-5	"L"	"I"	"I"	"no"
"t05"	33	"33 t05"	1	"C1"	"1"	18	"female"	"right"	"Ilse"	59	"t05_1_p2_2_mono.wav"	"le genièvre"	"yes"	"yes"	"match"	"u"	"yes"	967	1939	972	5	"yes"	7.56992765524265	1735	7.45876269238096	"correct"	3	2	3	4	2	2.75	6	"L"	"I"	"I"	"no"
"t05"	17	"17 t05"	1	"A1"	"1"	18	"male"	"right"	"Other"	148	"t05_2_p3_2_mono.wav"	"le g'nièvre"	"yes"	"yes"	"mismatch"	"r"	"yes"	943	1295	352	5	"yes"	7.16626597413364	1019	6.92657703322272	"correct"	3	2	1	2	2	1.75	-5	"L"	"I"	"I"	"no"
"t05"	21	"21 t05"	1	"B1"	"1"	18	"female"	"right"	"Other"	6	"t05_1_p2_2_mono.wav"	"le genièvre"	"yes"	"yes"	"match"	"u"	"yes"	967	1395	428	5	"yes"	7.24064969425547	2082	7.64108424917491	"correct"	3	2	1	2	2	1.75	-5	"L"	"I"	"I"	"no"
"t05"	25	"25 t05"	1	"C1"	"1"	18	"female"	"right"	"Ferdy"	59	"t05_1_p2_2_mono.wav"	"le genièvre"	"yes"	"yes"	"match"	"u"	"yes"	967	1749	782	5	"yes"	7.4667994750186	1064	6.96979066990159	"correct"	6	4	4	4	3	3.75	-15	"L"	"I"	"I"	"no"
"t05"	47	"47 t05"	1	"B1"	"1"	23	"female"	"left"	"Ferdy"	6	"t05_1_p2_2_mono.wav"	"le genièvre"	"yes"	"yes"	"match"	"u"	"yes"	967	1791	824	1	"yes"	7.49052940206071	1296	7.16703787691222	"correct"	3	1	1	1	1	1	-7	"L"	"I"	"I"	"no"
"t05"	51	"51 t05"	1	"B1"	"2"	18	"female"	"right"	"Nadia"	6	"t05_1_p2_2_mono.wav"	"le genièvre"	"yes"	"yes"	"mismatch"	"u"	"yes"	967	1721	754	5	"yes"	7.45066079621154	1778	7.48324441607385	"correct"	6	4	4	4	4	4	-7	"L"	"I"	"I"	"no"
"t05"	35	"35 t05"	1	"C2"	"1"	20	"male"	"left"	"Other"	59	"t05_2_p3_2_mono.wav"	"le g'nièvre"	"yes"	"yes"	"mismatch"	"r"	"yes"	943	1477	534	1	"yes"	7.29776828253138	1242	7.12447826249342	"correct"	3	2	2	2	1	1.75	4	"L"	"I"	"I"	"no"
"t05"	32	"32 t05"	1	"D2"	"2"	18	"male"	"right"	"Other"	39	"t05_1_p2_2_mono.wav"	"le genièvre"	"yes"	"yes"	"mismatch"	"u"	"yes"	967	1674	707	5	"yes"	7.42297125104942	2714	7.90617884039481	"correct"	3	1	1	1	1	1	-4	"L"	"I"	"I"	"no"
"t05"	50	"50 t05"	1	"B2"	"2"	18	"female"	"right"	"Nadia"	6	"t05_2_p3_2_mono.wav"	"le g'nièvre"	"yes"	"yes"	"match"	"r"	"yes"	943	1367	424	5	"yes"	7.22037383672395	1517	7.32448997934853	"correct"	3	2	2	5	2	2.75	8	"L"	"I"	"I"	"no"
"t05"	30	"30 t05"	1	"D1"	"2"	18	"female"	"right"	"Nadia"	39	"t05_2_p3_2_mono.wav"	"le g'nièvre"	"yes"	"yes"	"match"	"r"	"yes"	943	2196	1253	5	"yes"	7.69439280262942	2141	7.66902828858968	"correct"	3	1	2	2	1	1.5	1	"L"	"I"	"I"	"no"
"t05"	9	"9 t05"	1	"C1"	"1"	18	"female"	"right"	"Other"	59	"t05_1_p2_2_mono.wav"	"le genièvre"	"yes"	"yes"	"match"	"u"	"yes"	967	1711	744	5	"yes"	7.44483327389219	1435	7.26892012819372	"correct"	3	4	3	4	2	3.25	-3	"L"	"I"	"I"	"no"
"t05"	41	"41 t05"	1	"D1"	"1"	19	"male"	"right"	"Ilse"	39	"t05_2_p3_2_mono.wav"	"le g'nièvre"	"yes"	"yes"	"mismatch"	"r"	"yes"	943	2106	1163	5	"yes"	7.65254569269392	3049	8.02256894698825	"correct"	3	3	3	3	2	2.75	-6	"L"	"I"	"I"	"no"
"t05"	12	"12 t05"	1	"C2"	"2"	20	"female"	"right"	"Ferdy"	59	"t05_2_p3_2_mono.wav"	"le g'nièvre"	"yes"	"yes"	"match"	"r"	"yes"	943	1169	226	5	"yes"	7.06390396147207	1287	7.16006920759613	"correct"	2	2	2	1	1	1.5	-9	"L"	"I"	"I"	"no"
"t05"	27	"27 t05"	1	"C2"	"1"	22	"male"	"right"	"Other"	59	"t05_2_p3_2_mono.wav"	"le g'nièvre"	"yes"	"yes"	"mismatch"	"r"	"yes"	943	1446	503	5	"yes"	7.27655640271871	1692	7.43366654016617	"correct"	3	1	2	2	1	1.5	11	"L"	"I"	"I"	"no"
"t05"	2	"2 t05"	1	"A1"	"2"	21	"female"	"right"	"Other"	148	"t05_2_p3_2_mono.wav"	"le g'nièvre"	"yes"	"yes"	"match"	"r"	"yes"	943	2770	1827	5	"yes"	7.92660259918138	2127	7.66246781520024	"correct"	3	2	2	3	2	2.25	-2	"L"	"I"	"I"	"no"
"t05"	42	"42 t05"	1	"D2"	"1"	20	"male"	"right"	"Ilse"	39	"t05_1_p2_2_mono.wav"	"le genièvre"	"yes"	"yes"	"match"	"u"	"yes"	967	1291	324	5	"yes"	7.16317239084664	1585	7.36833968631138	"correct"	3	2	2	3	1	2	5	"L"	"I"	"I"	"no"
"t05"	16	"16 t05"	1	"D2"	"2"	19	"female"	"right"	"Other"	39	"t05_1_p2_2_mono.wav"	"le genièvre"	"yes"	"yes"	"mismatch"	"u"	"yes"	967	2264	1297	5	"yes"	7.72488843932307	1447	7.27724772663148	"correct"	5	1	2	1	1	1.25	1	"L"	"I"	"I"	"no"
"t05"	13	"13 t05"	1	"D1"	"1"	21	"male"	"right"	"Nadia"	39	"t05_2_p3_2_mono.wav"	"le g'nièvre"	"yes"	"yes"	"mismatch"	"r"	"yes"	943	1980	1037	5	"yes"	7.59085212368858	1871	7.53422832627409	"correct"	3	3	3	4	2	3	3	"L"	"I"	"I"	"no"
"t05"	8	"8 t05"	1	"B2"	"2"	22	"female"	"right"	"Other"	6	"t05_2_p3_2_mono.wav"	"le g'nièvre"	"yes"	"yes"	"match"	"r"	"yes"	943	1440	497	5	"yes"	7.27239839257005	1517	7.32448997934853	"correct"	3	2	2	2	1	1.75	-4	"L"	"I"	"I"	"no"
"t05"	11	"11 t05"	1	"C2"	"1"	20	"female"	"right"	"Other"	59	"t05_2_p3_2_mono.wav"	"le g'nièvre"	"yes"	"yes"	"mismatch"	"r"	"yes"	943	1326	383	5	"yes"	7.18992217074581	1117	7.0184017990692	"correct"	3	1	2	2	1	1.5	7	"L"	"I"	"I"	"no"
"t05"	7	"7 t05"	1	"B2"	"1"	19	"female"	"right"	"Other"	6	"t05_2_p3_2_mono.wav"	"le g'nièvre"	"yes"	"yes"	"mismatch"	"r"	"yes"	943	1545	602	5	"yes"	7.34277918933185	1547	7.34407285057307	"correct"	3	1	1	1	1	1	-6	"L"	"I"	"I"	"no"
"t05"	22	"22 t05"	1	"B1"	"2"	22	"female"	"right"	"Ferdy"	6	"t05_1_p2_2_mono.wav"	"le genièvre"	"yes"	"yes"	"mismatch"	"u"	"yes"	967	1928	961	5	"yes"	7.56423847517049	1067	6.97260625130175	"correct"	3	2	2	2	2	2	-6	"L"	"I"	"I"	"no"
"t05"	29	"29 t05"	1	"D1"	"1"	24	"female"	"right"	"Nadia"	39	"t05_2_p3_2_mono.wav"	"le g'nièvre"	"yes"	"yes"	"mismatch"	"r"	"yes"	943	1776	833	5	"yes"	7.48211892355212	1653	7.41034709782102	"correct"	6	2	3	4	2	2.75	-9	"L"	"I"	"I"	"no"
"t05"	43	"43 t05"	1	"A1"	"1"	18	"male"	"right"	"Ilse"	148	"t05_2_p3_2_mono.wav"	"le g'nièvre"	"yes"	"yes"	"mismatch"	"r"	"yes"	943	1290	347	5	"yes"	7.16239749735572	1632	7.39756153552405	"correct"	3	3	1	5	2	2.75	11	"L"	"I"	"I"	"no"
"t05"	34	"34 t05"	1	"C1"	"2"	18	"female"	"right"	"Ilse"	59	"t05_1_p2_2_mono.wav"	"le genièvre"	"yes"	"yes"	"mismatch"	"u"	"yes"	967	1507	540	5	"yes"	7.3178761986265	1428	7.26403014289953	"correct"	3	2	3	3	4	3	-5	"L"	"I"	"I"	"no"
"t05"	10	"10 t05"	1	"C1"	"2"	19	"female"	"left"	"Other"	59	"t05_1_p2_2_mono.wav"	"le genièvre"	"yes"	"yes"	"mismatch"	"u"	"yes"	967	1489	522	1	"yes"	7.30586003268401	1353	7.21007962817079	"correct"	3	3	1	2	3	2.25	4	"L"	"I"	"I"	"no"
"t05"	28	"28 t05"	1	"C2"	"2"	22	"female"	"right"	"Ferdy"	59	"t05_2_p3_2_mono.wav"	"le g'nièvre"	"yes"	"yes"	"match"	"r"	"yes"	943	1461	518	5	"yes"	7.2868764117507	1114	7.01571242048723	"correct"	2	1	2	1	1	1.25	-8	"L"	"I"	"I"	"no"
"t05"	46	"46 t05"	1	"A2"	"2"	22	"female"	"right"	"Ilse"	148	"t05_1_p2_2_mono.wav"	"le genièvre"	"yes"	"yes"	"mismatch"	"u"	"yes"	967	1491	524	5	"yes"	7.30720231476474	1292	7.16394668434255	"correct"	3	2	2	3	2	2.25	-2	"L"	"I"	"I"	"no"
"t06"	1	"1 t06"	1	"A1"	"1"	22	"female"	"right"	"Other"	139	"t06_1_p1_2_mono.wav"	"le recel"	"yes"	"yes"	"match"	"u"	"yes"	938	1236	298	5	"yes"	7.11963563801764	1598	7.37650812632622	"correct"	3	1	2	2	1	1.5	-7	"I"	"I"	"I"	"yes"
"t06"	35	"35 t06"	1	"C2"	"1"	20	"male"	"left"	"Other"	10	"t06_2_p2_2_mono.wav"	"le r'cel"	"yes"	"yes"	"mismatch"	"r"	"yes"	902	1532	630	1	"yes"	7.33432935030054	1580	7.36518012602101	"wrong"	3	2	2	2	1	1.75	4	"I"	"I"	"I"	"yes"
"t06"	23	"23 t06"	1	"B2"	"1"	23	"female"	"right"	"Ferdy"	66	"t06_1_p1_2_mono.wav"	"le recel"	"yes"	"yes"	"match"	"u"	"yes"	938	1348	410	5	"yes"	7.20637729147225	2229	7.70930833338587	"correct"	3	3	2	2	1	2	NA	"I"	"I"	"I"	"yes"
"t06"	47	"47 t06"	1	"B1"	"1"	23	"female"	"left"	"Ferdy"	66	"t06_2_p2_2_mono.wav"	"le r'cel"	"yes"	"yes"	"mismatch"	"r"	"yes"	902	1848	946	1	"yes"	7.52185925220163	2084	7.64204440287326	"correct"	3	1	1	1	1	1	-7	"I"	"I"	"I"	"yes"
"t06"	32	"32 t06"	1	"D2"	"2"	18	"male"	"right"	"Other"	24	"t06_2_p2_2_mono.wav"	"le r'cel"	"yes"	"yes"	"match"	"r"	"yes"	902	2568	1666	5	"yes"	7.85088266480985	3514	8.16451026874704	"correct"	3	1	1	1	1	1	-4	"I"	"I"	"I"	"yes"
"t06"	15	"15 t06"	1	"D1"	"1"	20	"female"	"right"	"Other"	24	"t06_1_p1_2_mono.wav"	"le recel"	"yes"	"yes"	"match"	"u"	"yes"	938	2714	1776	5	"yes"	7.90617884039481	2259	7.722677516468	"correct"	6	4	3	3	3	3.25	-4	"I"	"I"	"I"	"yes"
"t06"	50	"50 t06"	1	"B2"	"2"	18	"female"	"right"	"Nadia"	66	"t06_1_p1_2_mono.wav"	"le recel"	"yes"	"yes"	"mismatch"	"u"	"yes"	938	1283	345	5	"yes"	7.15695636461564	3513	8.16422565226583	"correct"	3	2	2	5	2	2.75	8	"I"	"I"	"I"	"yes"
"t06"	16	"16 t06"	1	"D2"	"2"	19	"female"	"right"	"Other"	24	"t06_2_p2_2_mono.wav"	"le r'cel"	"yes"	"yes"	"match"	"r"	"yes"	902	2015	1113	5	"yes"	7.60837447438078	1221	7.1074254741107	"correct"	5	1	2	1	1	1.25	1	"I"	"I"	"I"	"yes"
"t06"	49	"49 t06"	1	"B2"	"1"	19	"female"	"left"	"Other"	66	"t06_1_p1_2_mono.wav"	"le recel"	"yes"	"yes"	"match"	"u"	"yes"	938	1884	946	1	"yes"	7.54115245513631	1804	7.49776170062257	"wrong"	3	1	1	2	2	1.5	-2	"I"	"I"	"I"	"yes"
"t06"	24	"24 t06"	1	"B2"	"2"	18	"female"	"right"	"Ferdy"	66	"t06_1_p1_2_mono.wav"	"le recel"	"yes"	"yes"	"mismatch"	"u"	"yes"	938	1738	800	5	"yes"	7.46049030582534	1078	6.98286275146894	"wrong"	3	1	3	3	1	2	2	"I"	"I"	"I"	"yes"
"t06"	3	"3 t06"	1	"A2"	"1"	23	"female"	"left"	"Other"	139	"t06_2_p2_2_mono.wav"	"le r'cel"	"yes"	"yes"	"mismatch"	"r"	"yes"	902	1788	886	1	"yes"	7.48885295573346	1589	7.37086016653672	"correct"	3.5	2	2	3	2	2.25	-3	"I"	"I"	"I"	"yes"
"t06"	8	"8 t06"	1	"B2"	"2"	22	"female"	"right"	"Other"	66	"t06_1_p1_2_mono.wav"	"le recel"	"yes"	"yes"	"mismatch"	"u"	"yes"	938	1374	436	5	"yes"	7.22548147278229	2465	7.80994708647679	"correct"	3	2	2	2	1	1.75	-4	"I"	"I"	"I"	"yes"
"t06"	21	"21 t06"	1	"B1"	"1"	18	"female"	"right"	"Other"	66	"t06_2_p2_2_mono.wav"	"le r'cel"	"yes"	"yes"	"mismatch"	"r"	"yes"	902	1174	272	5	"yes"	7.06817200038804	1859	7.52779398772144	"correct"	3	2	1	2	2	1.75	-5	"I"	"I"	"I"	"yes"
"t06"	13	"13 t06"	1	"D1"	"1"	21	"male"	"right"	"Nadia"	24	"t06_1_p1_2_mono.wav"	"le recel"	"yes"	"yes"	"match"	"u"	"yes"	938	1370	432	5	"yes"	7.22256601882217	1417	7.25629723969068	"correct"	3	3	3	4	2	3	3	"I"	"I"	"I"	"yes"
"t06"	33	"33 t06"	1	"C1"	"1"	18	"female"	"right"	"Ilse"	10	"t06_1_p1_2_mono.wav"	"le recel"	"yes"	"yes"	"match"	"u"	"yes"	938	2081	1143	5	"yes"	7.64060382639363	5606	8.63159273172473	"correct"	3	2	3	4	2	2.75	6	"I"	"I"	"I"	"yes"
"t06"	51	"51 t06"	1	"B1"	"2"	18	"female"	"right"	"Nadia"	66	"t06_2_p2_2_mono.wav"	"le r'cel"	"yes"	"yes"	"match"	"r"	"yes"	902	1511	609	5	"yes"	7.32052696227274	1583	7.36707705988101	"correct"	6	4	4	4	4	4	-7	"I"	"I"	"I"	"yes"
"t06"	6	"6 t06"	1	"B1"	"2"	20	"female"	"right"	"Other"	66	"t06_2_p2_2_mono.wav"	"le r'cel"	"yes"	"yes"	"match"	"r"	"yes"	902	1112	210	5	"yes"	7.01391547481053	2044	7.6226639513236	"correct"	3	1	2	2	1	1.5	-5	"I"	"I"	"I"	"yes"
"t06"	12	"12 t06"	1	"C2"	"2"	20	"female"	"right"	"Ferdy"	10	"t06_2_p2_2_mono.wav"	"le r'cel"	"yes"	"yes"	"match"	"r"	"yes"	902	1652	750	5	"yes"	7.40974195408092	1446	7.27655640271871	"wrong"	2	2	2	1	1	1.5	-9	"I"	"I"	"I"	"yes"
"t06"	45	"45 t06"	1	"A2"	"1"	19	"male"	"right"	"Ilse"	139	"t06_2_p2_2_mono.wav"	"le r'cel"	"yes"	"yes"	"mismatch"	"r"	"yes"	902	1496	594	5	"yes"	7.31055015853442	1653	7.41034709782102	"correct"	3	1	2	1	1	1.25	-6	"I"	"I"	"I"	"yes"
"t06"	17	"17 t06"	1	"A1"	"1"	18	"male"	"right"	"Other"	139	"t06_1_p1_2_mono.wav"	"le recel"	"yes"	"yes"	"match"	"u"	"yes"	938	1587	649	5	"yes"	7.36960072052641	1659	7.41397029019044	"wrong"	3	2	1	2	2	1.75	-5	"I"	"I"	"I"	"yes"
"t06"	27	"27 t06"	1	"C2"	"1"	22	"male"	"right"	"Other"	10	"t06_2_p2_2_mono.wav"	"le r'cel"	"yes"	"yes"	"mismatch"	"r"	"yes"	902	1363	461	5	"yes"	7.21744343169653	1114	7.01571242048723	"correct"	3	1	2	2	1	1.5	11	"I"	"I"	"I"	"yes"
"t06"	10	"10 t06"	1	"C1"	"2"	19	"female"	"left"	"Other"	10	"t06_1_p1_2_mono.wav"	"le recel"	"yes"	"yes"	"mismatch"	"u"	"yes"	938	1304	366	1	"yes"	7.1731917424866	1184	7.07665381544395	"correct"	3	3	1	2	3	2.25	4	"I"	"I"	"I"	"yes"
"t06"	42	"42 t06"	1	"D2"	"1"	20	"male"	"right"	"Ilse"	24	"t06_2_p2_2_mono.wav"	"le r'cel"	"yes"	"yes"	"mismatch"	"r"	"yes"	902	1285	383	5	"yes"	7.15851399732932	1835	7.51479976048867	"correct"	3	2	2	3	1	2	5	"I"	"I"	"I"	"yes"
"t06"	14	"14 t06"	1	"D1"	"2"	19	"female"	"right"	"Other"	24	"t06_1_p1_2_mono.wav"	"le recel"	"yes"	"yes"	"mismatch"	"u"	"yes"	938	2311	1373	5	"yes"	7.74543561027438	1519	7.32580750259577	"correct"	3	2	1	2	2	1.75	1	"I"	"I"	"I"	"yes"
"t06"	9	"9 t06"	1	"C1"	"1"	18	"female"	"right"	"Other"	10	"t06_1_p1_2_mono.wav"	"le recel"	"yes"	"yes"	"match"	"u"	"yes"	938	1508	570	5	"yes"	7.3185395485679	1911	7.55538194424027	"correct"	3	4	3	4	2	3.25	-3	"I"	"I"	"I"	"yes"
"t06"	43	"43 t06"	1	"A1"	"1"	18	"male"	"right"	"Ilse"	139	"t06_1_p1_2_mono.wav"	"le recel"	"yes"	"yes"	"match"	"u"	"yes"	938	1323	385	5	"yes"	7.18765716411496	1761	7.47363710849621	"correct"	3	3	1	5	2	2.75	11	"I"	"I"	"I"	"yes"
"t06"	29	"29 t06"	1	"D1"	"1"	24	"female"	"right"	"Nadia"	24	"t06_1_p1_2_mono.wav"	"le recel"	"yes"	"yes"	"match"	"u"	"yes"	938	1569	631	5	"yes"	7.35819375273303	1527	7.33106030521863	"correct"	6	2	3	4	2	2.75	-9	"I"	"I"	"I"	"yes"
"t06"	25	"25 t06"	1	"C1"	"1"	18	"female"	"right"	"Ferdy"	10	"t06_1_p1_2_mono.wav"	"le recel"	"yes"	"yes"	"match"	"u"	"yes"	938	1804	866	5	"yes"	7.49776170062257	4382	8.38526052015541	"wrong"	6	4	4	4	3	3.75	-15	"I"	"I"	"I"	"yes"
"t08"	22	"22 t08"	1	"B1"	"2"	22	"female"	"right"	"Ferdy"	187	"t08_2_p4_2_mono.wav"	"la s'melle"	"yes"	"yes"	"match"	"r"	"yes"	879	919	40	5	"yes"	6.82328612235569	834	6.72623340235875	"correct"	3	2	2	2	2	2	-6	"L"	"I"	"L"	"no"
"t08"	5	"5 t08"	1	"B1"	"1"	20	"female"	"right"	"Other"	187	"t08_2_p4_2_mono.wav"	"la s'melle"	"yes"	"yes"	"mismatch"	"r"	"yes"	879	1169	290	5	"yes"	7.06390396147207	1368	7.2211050981825	"correct"	2	2	2	2	3	2.25	-3	"L"	"I"	"L"	"no"
"t08"	17	"17 t08"	1	"A1"	"1"	18	"male"	"right"	"Other"	121	"t08_1_p3_2_mono.wav"	"la semelle"	"yes"	"yes"	"match"	"u"	"yes"	916	1953	1037	5	"yes"	7.57712193087668	4584	8.43032725839458	"wrong"	3	2	1	2	2	1.75	-5	"L"	"I"	"L"	"no"
"t08"	13	"13 t08"	1	"D1"	"1"	21	"male"	"right"	"Nadia"	181	"t08_2_p4_2_mono.wav"	"la s'melle"	"yes"	"yes"	"mismatch"	"r"	"yes"	879	1787	908	5	"yes"	7.48829351515943	1835	7.51479976048867	"correct"	3	3	3	4	2	3	3	"L"	"I"	"L"	"no"
"t08"	1	"1 t08"	1	"A1"	"1"	22	"female"	"right"	"Other"	121	"t08_1_p3_2_mono.wav"	"la semelle"	"yes"	"yes"	"match"	"u"	"yes"	916	1148	232	5	"yes"	7.04577657687951	1835	7.51479976048867	"correct"	3	1	2	2	1	1.5	-7	"L"	"I"	"L"	"no"
"t08"	41	"41 t08"	1	"D1"	"1"	19	"male"	"right"	"Ilse"	181	"t08_2_p4_2_mono.wav"	"la s'melle"	"yes"	"yes"	"mismatch"	"r"	"yes"	879	1002	123	5	"yes"	6.90975328164481	1154	7.05098944706805	"correct"	3	3	3	3	2	2.75	-6	"L"	"I"	"L"	"no"
"t08"	27	"27 t08"	1	"C2"	"1"	22	"male"	"right"	"Other"	184	"t08_2_p4_2_mono.wav"	"la s'melle"	"yes"	"yes"	"mismatch"	"r"	"yes"	879	1485	606	5	"yes"	7.3031700512368	1440	7.27239839257005	"correct"	3	1	2	2	1	1.5	11	"L"	"I"	"L"	"no"
"t08"	12	"12 t08"	1	"C2"	"2"	20	"female"	"right"	"Ferdy"	184	"t08_2_p4_2_mono.wav"	"la s'melle"	"yes"	"yes"	"match"	"r"	"yes"	879	1408	529	5	"yes"	7.24992553671799	933	6.83840520084734	"wrong"	2	2	2	1	1	1.5	-9	"L"	"I"	"L"	"no"
"t08"	42	"42 t08"	1	"D2"	"1"	20	"male"	"right"	"Ilse"	181	"t08_1_p3_2_mono.wav"	"la semelle"	"yes"	"yes"	"match"	"u"	"yes"	916	1451	535	5	"yes"	7.28000825288419	1749	7.4667994750186	"correct"	3	2	2	3	1	2	5	"L"	"I"	"L"	"no"
"t08"	46	"46 t08"	1	"A2"	"2"	22	"female"	"right"	"Ilse"	121	"t08_2_p4_2_mono.wav"	"la s'melle"	"yes"	"yes"	"match"	"r"	"yes"	879	1406	527	5	"yes"	7.24850407237061	1270	7.14677217945264	"correct"	3	2	2	3	2	2.25	-2	"L"	"I"	"L"	"no"
"t08"	35	"35 t08"	1	"C2"	"1"	20	"male"	"left"	"Other"	184	"t08_2_p4_2_mono.wav"	"la s'melle"	"yes"	"yes"	"mismatch"	"r"	"yes"	879	1248	369	1	"yes"	7.12929754892937	1214	7.10167597161944	"correct"	3	2	2	2	1	1.75	4	"L"	"I"	"L"	"no"
"t08"	45	"45 t08"	1	"A2"	"1"	19	"male"	"right"	"Ilse"	121	"t08_2_p4_2_mono.wav"	"la s'melle"	"yes"	"yes"	"mismatch"	"r"	"yes"	879	1118	239	5	"yes"	7.01929665371504	9129	9.11921143856508	"correct"	3	1	2	1	1	1.25	-6	"L"	"I"	"L"	"no"
"t08"	9	"9 t08"	1	"C1"	"1"	18	"female"	"right"	"Other"	184	"t08_1_p3_2_mono.wav"	"la semelle"	"yes"	"yes"	"match"	"u"	"yes"	916	1464	548	5	"yes"	7.28892769452126	1459	7.28550654852279	"wrong"	3	4	3	4	2	3.25	-3	"L"	"I"	"L"	"no"
"t08"	20	"20 t08"	1	"A2"	"2"	21	"male"	"right"	"Other"	121	"t08_2_p4_2_mono.wav"	"la s'melle"	"yes"	"yes"	"match"	"r"	"yes"	879	1255	376	5	"yes"	7.13489085156588	1199	7.08924315502751	"correct"	2	3	2	2	1	2	-2	"L"	"I"	"L"	"no"
"t08"	7	"7 t08"	1	"B2"	"1"	19	"female"	"right"	"Other"	187	"t08_1_p3_2_mono.wav"	"la semelle"	"yes"	"yes"	"match"	"u"	"yes"	916	1445	529	5	"yes"	7.27586460054653	2442	7.80057265467065	"correct"	3	1	1	1	1	1	-6	"L"	"I"	"L"	"no"
"t08"	49	"49 t08"	1	"B2"	"1"	19	"female"	"left"	"Other"	187	"t08_1_p3_2_mono.wav"	"la semelle"	"yes"	"yes"	"match"	"u"	"yes"	916	1294	378	1	"yes"	7.16549347506085	1239	7.12205988162914	"correct"	3	1	1	2	2	1.5	-2	"L"	"I"	"L"	"no"
"t08"	8	"8 t08"	1	"B2"	"2"	22	"female"	"right"	"Other"	187	"t08_1_p3_2_mono.wav"	"la semelle"	"yes"	"yes"	"mismatch"	"u"	"yes"	916	1258	342	5	"yes"	7.13727843726039	3658	8.20467182895081	"correct"	3	2	2	2	1	1.75	-4	"L"	"I"	"L"	"no"
"t08"	32	"32 t08"	1	"D2"	"2"	18	"male"	"right"	"Other"	181	"t08_1_p3_2_mono.wav"	"la semelle"	"yes"	"yes"	"mismatch"	"u"	"yes"	916	1723	807	5	"yes"	7.45182223652793	4331	8.37355374121463	"correct"	3	1	1	1	1	1	-4	"L"	"I"	"L"	"no"
"t08"	21	"21 t08"	1	"B1"	"1"	18	"female"	"right"	"Other"	187	"t08_2_p4_2_mono.wav"	"la s'melle"	"yes"	"yes"	"mismatch"	"r"	"yes"	879	1489	610	5	"yes"	7.30586003268401	5095	8.53601494565683	"correct"	3	2	1	2	2	1.75	-5	"L"	"I"	"L"	"no"
"t08"	29	"29 t08"	1	"D1"	"1"	24	"female"	"right"	"Nadia"	181	"t08_2_p4_2_mono.wav"	"la s'melle"	"yes"	"yes"	"mismatch"	"r"	"yes"	879	1386	507	5	"yes"	7.23417717974985	1604	7.38025578842646	"correct"	6	2	3	4	2	2.75	-9	"L"	"I"	"L"	"no"
"t08"	47	"47 t08"	1	"B1"	"1"	23	"female"	"left"	"Ferdy"	187	"t08_2_p4_2_mono.wav"	"la s'melle"	"yes"	"yes"	"mismatch"	"r"	"yes"	879	1964	1085	1	"yes"	7.58273848891441	1189	7.08086789669078	"correct"	3	1	1	1	1	1	-7	"L"	"I"	"L"	"no"
"t08"	16	"16 t08"	1	"D2"	"2"	19	"female"	"right"	"Other"	181	"t08_1_p3_2_mono.wav"	"la semelle"	"yes"	"yes"	"mismatch"	"u"	"yes"	916	1473	557	5	"yes"	7.29505641646263	1548	7.34471905414967	"correct"	5	1	2	1	1	1.25	1	"L"	"I"	"L"	"no"
"t08"	36	"36 t08"	1	"C2"	"2"	21	"male"	"right"	"Other"	184	"t08_2_p4_2_mono.wav"	"la s'melle"	"yes"	"yes"	"match"	"r"	"yes"	879	1610	731	5	"yes"	7.38398945797851	1731	7.45645455517621	"correct"	3	2	3	4	2	2.75	-12	"L"	"I"	"L"	"no"
"t08"	34	"34 t08"	1	"C1"	"2"	18	"female"	"right"	"Ilse"	184	"t08_1_p3_2_mono.wav"	"la semelle"	"yes"	"yes"	"mismatch"	"u"	"yes"	916	1580	664	5	"yes"	7.36518012602101	2317	7.74802852443238	"correct"	3	2	3	3	4	3	-5	"L"	"I"	"L"	"no"
"t08"	23	"23 t08"	1	"B2"	"1"	23	"female"	"right"	"Ferdy"	187	"t08_1_p3_2_mono.wav"	"la semelle"	"yes"	"yes"	"match"	"u"	"yes"	916	2943	2027	5	"yes"	7.98718474823347	2067	7.63385355968177	"correct"	3	3	2	2	1	2	NA	"L"	"I"	"L"	"no"
"t08"	10	"10 t08"	1	"C1"	"2"	19	"female"	"left"	"Other"	184	"t08_1_p3_2_mono.wav"	"la semelle"	"yes"	"yes"	"mismatch"	"u"	"yes"	916	1272	356	1	"yes"	7.14834574390007	1013	6.92067150424868	"correct"	3	3	1	2	3	2.25	4	"L"	"I"	"L"	"no"
"t08"	2	"2 t08"	1	"A1"	"2"	21	"female"	"right"	"Other"	121	"t08_1_p3_2_mono.wav"	"la semelle"	"yes"	"yes"	"mismatch"	"u"	"yes"	916	1282	366	5	"yes"	7.15617663748062	2447	7.80261806344267	"correct"	3	2	2	3	2	2.25	-2	"L"	"I"	"L"	"no"
"t08"	6	"6 t08"	1	"B1"	"2"	20	"female"	"right"	"Other"	187	"t08_2_p4_2_mono.wav"	"la s'melle"	"yes"	"yes"	"match"	"r"	"yes"	879	1089	210	5	"yes"	6.99301512293296	1970	7.58578882173203	"correct"	3	1	2	2	1	1.5	-5	"L"	"I"	"L"	"no"
"t08"	14	"14 t08"	1	"D1"	"2"	19	"female"	"right"	"Other"	181	"t08_2_p4_2_mono.wav"	"la s'melle"	"yes"	"yes"	"match"	"r"	"yes"	879	1251	372	5	"yes"	7.13169851046691	1391	7.23777819192344	"correct"	3	2	1	2	2	1.75	1	"L"	"I"	"L"	"no"
"t08"	3	"3 t08"	1	"A2"	"1"	23	"female"	"left"	"Other"	121	"t08_2_p4_2_mono.wav"	"la s'melle"	"yes"	"yes"	"mismatch"	"r"	"yes"	879	1115	236	1	"yes"	7.01660968389422	1418	7.25700270709207	"correct"	3.5	2	2	3	2	2.25	-3	"L"	"I"	"L"	"no"
"t08"	43	"43 t08"	1	"A1"	"1"	18	"male"	"right"	"Ilse"	121	"t08_1_p3_2_mono.wav"	"la semelle"	"yes"	"yes"	"match"	"u"	"yes"	916	1356	440	5	"yes"	7.21229446850034	1662	7.41577697541539	"correct"	3	3	1	5	2	2.75	11	"L"	"I"	"L"	"no"
"t08"	51	"51 t08"	1	"B1"	"2"	18	"female"	"right"	"Nadia"	187	"t08_2_p4_2_mono.wav"	"la s'melle"	"yes"	"yes"	"match"	"r"	"yes"	879	1672	793	5	"yes"	7.42177579364465	1347	7.20563517641036	"wrong"	6	4	4	4	4	4	-7	"L"	"I"	"L"	"no"
"t08"	15	"15 t08"	1	"D1"	"1"	20	"female"	"right"	"Other"	181	"t08_2_p4_2_mono.wav"	"la s'melle"	"yes"	"yes"	"mismatch"	"r"	"yes"	879	1392	513	5	"yes"	7.23849684089437	2622	7.87169266432365	"correct"	6	4	3	3	3	3.25	-4	"L"	"I"	"L"	"no"
"t08"	28	"28 t08"	1	"C2"	"2"	22	"female"	"right"	"Ferdy"	184	"t08_2_p4_2_mono.wav"	"la s'melle"	"yes"	"yes"	"match"	"r"	"yes"	879	1048	169	5	"yes"	6.95463886488099	1456	7.28344822875663	"correct"	2	1	2	1	1	1.25	-8	"L"	"I"	"L"	"no"
"t09"	1	"1 t09"	1	"A1"	"1"	22	"female"	"right"	"Other"	157	"t09_2_p2_2_mono.wav"	"le f'nouil"	"yes"	"yes"	"mismatch"	"r"	"yes"	820	1127	307	5	"yes"	7.02731451403978	1181	7.07411681619736	"correct"	3	1	2	2	1	1.5	-7	"L"	"I"	"I"	"no"
"t09"	50	"50 t09"	1	"B2"	"2"	18	"female"	"right"	"Nadia"	29	"t09_1_p1_2_mono.wav"	"le fenouil"	"yes"	"yes"	"mismatch"	"u"	"yes"	845	1204	359	5	"yes"	7.09340462586877	1720	7.4500795698075	"correct"	3	2	2	5	2	2.75	8	"L"	"I"	"I"	"no"
"t09"	27	"27 t09"	1	"C2"	"1"	22	"male"	"right"	"Other"	34	"t09_1_p1_2_mono.wav"	"le fenouil"	"yes"	"yes"	"match"	"u"	"yes"	845	1459	614	5	"yes"	7.28550654852279	1255	7.13489085156588	"correct"	3	1	2	2	1	1.5	11	"L"	"I"	"I"	"no"
"t09"	33	"33 t09"	1	"C1"	"1"	18	"female"	"right"	"Ilse"	34	"t09_2_p2_2_mono.wav"	"le f'nouil"	"yes"	"yes"	"mismatch"	"r"	"yes"	820	2172	1352	5	"yes"	7.68340368105383	1378	7.2283884515736	"correct"	3	2	3	4	2	2.75	6	"L"	"I"	"I"	"no"
"t09"	49	"49 t09"	1	"B2"	"1"	19	"female"	"left"	"Other"	29	"t09_1_p1_2_mono.wav"	"le fenouil"	"yes"	"yes"	"match"	"u"	"yes"	845	1163	318	1	"yes"	7.05875815251866	3096	8.03786623470962	"correct"	3	1	1	2	2	1.5	-2	"L"	"I"	"I"	"no"
"t09"	32	"32 t09"	1	"D2"	"2"	18	"male"	"right"	"Other"	91	"t09_2_p2_2_mono.wav"	"le f'nouil"	"yes"	"yes"	"match"	"r"	"yes"	820	2284	1464	5	"yes"	7.7336835707759	2733	7.91315518592807	"correct"	3	1	1	1	1	1	-4	"L"	"I"	"I"	"no"
"t09"	14	"14 t09"	1	"D1"	"2"	19	"female"	"right"	"Other"	91	"t09_1_p1_2_mono.wav"	"le fenouil"	"yes"	"yes"	"mismatch"	"u"	"yes"	845	1564	719	5	"yes"	7.35500192110526	1383	7.23201033166476	"correct"	3	2	1	2	2	1.75	1	"L"	"I"	"I"	"no"
"t09"	41	"41 t09"	1	"D1"	"1"	19	"male"	"right"	"Ilse"	91	"t09_1_p1_2_mono.wav"	"le fenouil"	"yes"	"yes"	"match"	"u"	"yes"	845	1088	243	5	"yes"	6.99209642741589	2926	7.98139158158007	"correct"	3	3	3	3	2	2.75	-6	"L"	"I"	"I"	"no"
"t09"	24	"24 t09"	1	"B2"	"2"	18	"female"	"right"	"Ferdy"	29	"t09_1_p1_2_mono.wav"	"le fenouil"	"yes"	"yes"	"mismatch"	"u"	"yes"	845	1222	377	5	"yes"	7.10824413973154	1469	7.29233717617388	"correct"	3	1	3	3	1	2	2	"L"	"I"	"I"	"no"
"t09"	7	"7 t09"	1	"B2"	"1"	19	"female"	"right"	"Other"	29	"t09_1_p1_2_mono.wav"	"le fenouil"	"yes"	"yes"	"match"	"u"	"yes"	845	1293	448	5	"yes"	7.16472037877186	1526	7.3304052118444	"correct"	3	1	1	1	1	1	-6	"L"	"I"	"I"	"no"
"t09"	12	"12 t09"	1	"C2"	"2"	20	"female"	"right"	"Ferdy"	34	"t09_1_p1_2_mono.wav"	"le fenouil"	"yes"	"yes"	"mismatch"	"u"	"yes"	845	1885	1040	5	"yes"	7.54168309988211	1289	7.16162200293919	"wrong"	2	2	2	1	1	1.5	-9	"L"	"I"	"I"	"no"
"t09"	9	"9 t09"	1	"C1"	"1"	18	"female"	"right"	"Other"	34	"t09_2_p2_2_mono.wav"	"le f'nouil"	"yes"	"yes"	"mismatch"	"r"	"yes"	820	1631	811	5	"yes"	7.39694860262101	1266	7.14361760270412	"correct"	3	4	3	4	2	3.25	-3	"L"	"I"	"I"	"no"
"t09"	45	"45 t09"	1	"A2"	"1"	19	"male"	"right"	"Ilse"	157	"t09_1_p1_2_mono.wav"	"le fenouil"	"yes"	"yes"	"match"	"u"	"yes"	845	1305	460	5	"yes"	7.17395831975679	967	6.87419849545329	"correct"	3	1	2	1	1	1.25	-6	"L"	"I"	"I"	"no"
"t09"	35	"35 t09"	1	"C2"	"1"	20	"male"	"left"	"Other"	34	"t09_1_p1_2_mono.wav"	"le fenouil"	"yes"	"yes"	"match"	"u"	"yes"	845	1222	377	1	"yes"	7.10824413973154	1227	7.11232744471091	"correct"	3	2	2	2	1	1.75	4	"L"	"I"	"I"	"no"
"t09"	46	"46 t09"	1	"A2"	"2"	22	"female"	"right"	"Ilse"	157	"t09_1_p1_2_mono.wav"	"le fenouil"	"yes"	"yes"	"mismatch"	"u"	"yes"	845	1774	929	5	"yes"	7.48099216286952	1569	7.35819375273303	"correct"	3	2	2	3	2	2.25	-2	"L"	"I"	"I"	"no"
"t09"	47	"47 t09"	1	"B1"	"1"	23	"female"	"left"	"Ferdy"	29	"t09_2_p2_2_mono.wav"	"le f'nouil"	"yes"	"yes"	"mismatch"	"r"	"yes"	820	1591	771	1	"yes"	7.37211802833779	2499	7.82364593083495	"correct"	3	1	1	1	1	1	-7	"L"	"I"	"I"	"no"
"t09"	36	"36 t09"	1	"C2"	"2"	21	"male"	"right"	"Other"	34	"t09_1_p1_2_mono.wav"	"le fenouil"	"yes"	"yes"	"mismatch"	"u"	"yes"	845	1291	446	5	"yes"	7.16317239084664	1221	7.1074254741107	"correct"	3	2	3	4	2	2.75	-12	"L"	"I"	"I"	"no"
"t09"	51	"51 t09"	1	"B1"	"2"	18	"female"	"right"	"Nadia"	29	"t09_2_p2_2_mono.wav"	"le f'nouil"	"yes"	"yes"	"match"	"r"	"yes"	820	1981	1161	5	"yes"	7.59135704669855	1771	7.47929963778283	"correct"	6	4	4	4	4	4	-7	"L"	"I"	"I"	"no"
"t09"	43	"43 t09"	1	"A1"	"1"	18	"male"	"right"	"Ilse"	157	"t09_2_p2_2_mono.wav"	"le f'nouil"	"yes"	"yes"	"mismatch"	"r"	"yes"	820	1032	212	5	"yes"	6.93925394604151	1769	7.47816969415979	"correct"	3	3	1	5	2	2.75	11	"L"	"I"	"I"	"no"
"t09"	6	"6 t09"	1	"B1"	"2"	20	"female"	"right"	"Other"	29	"t09_2_p2_2_mono.wav"	"le f'nouil"	"yes"	"yes"	"match"	"r"	"yes"	820	1213	393	5	"yes"	7.10085190894405	2298	7.7397944584087	"correct"	3	1	2	2	1	1.5	-5	"L"	"I"	"I"	"no"
"t09"	20	"20 t09"	1	"A2"	"2"	21	"male"	"right"	"Other"	157	"t09_1_p1_2_mono.wav"	"le fenouil"	"yes"	"yes"	"mismatch"	"u"	"yes"	845	1534	689	5	"yes"	7.3356339819272	1348	7.20637729147225	"correct"	2	3	2	2	1	2	-2	"L"	"I"	"I"	"no"
"t09"	22	"22 t09"	1	"B1"	"2"	22	"female"	"right"	"Ferdy"	29	"t09_2_p2_2_mono.wav"	"le f'nouil"	"yes"	"yes"	"match"	"r"	"yes"	820	956	136	5	"yes"	6.8627579130514	1078	6.98286275146894	"correct"	3	2	2	2	2	2	-6	"L"	"I"	"I"	"no"
"t09"	3	"3 t09"	1	"A2"	"1"	23	"female"	"left"	"Other"	157	"t09_1_p1_2_mono.wav"	"le fenouil"	"yes"	"yes"	"match"	"u"	"yes"	845	1468	623	1	"yes"	7.29165620917446	1608	7.38274644973891	"wrong"	3.5	2	2	3	2	2.25	-3	"L"	"I"	"I"	"no"
"t09"	28	"28 t09"	1	"C2"	"2"	22	"female"	"right"	"Ferdy"	34	"t09_1_p1_2_mono.wav"	"le fenouil"	"yes"	"yes"	"mismatch"	"u"	"yes"	845	1434	589	5	"yes"	7.26822302115957	1216	7.10332206252611	"correct"	2	1	2	1	1	1.25	-8	"L"	"I"	"I"	"no"
"t09"	42	"42 t09"	1	"D2"	"1"	20	"male"	"right"	"Ilse"	91	"t09_2_p2_2_mono.wav"	"le f'nouil"	"yes"	"yes"	"mismatch"	"r"	"yes"	820	3013	2193	5	"yes"	8.0106915391303	2352	7.76302130901852	"correct"	3	2	2	3	1	2	5	"L"	"I"	"I"	"no"
"t09"	26	"26 t09"	1	"C1"	"2"	23	"female"	"right"	"Other"	34	"t09_2_p2_2_mono.wav"	"le f'nouil"	"yes"	"yes"	"match"	"r"	"yes"	820	1649	829	5	"yes"	7.4079243225596	3664	8.20631072579402	"correct"	3	1	2	2	1	1.5	-3	"L"	"I"	"I"	"no"
"t09"	29	"29 t09"	1	"D1"	"1"	24	"female"	"right"	"Nadia"	91	"t09_1_p1_2_mono.wav"	"le fenouil"	"yes"	"yes"	"match"	"u"	"yes"	845	1226	381	5	"yes"	7.11151211649616	1661	7.41517510961329	"correct"	6	2	3	4	2	2.75	-9	"L"	"I"	"I"	"no"
"t09"	25	"25 t09"	1	"C1"	"1"	18	"female"	"right"	"Ferdy"	34	"t09_2_p2_2_mono.wav"	"le f'nouil"	"yes"	"yes"	"mismatch"	"r"	"yes"	820	2322	1502	5	"yes"	7.75018416225784	1326	7.18992217074581	"correct"	6	4	4	4	3	3.75	-15	"L"	"I"	"I"	"no"
"t09"	2	"2 t09"	1	"A1"	"2"	21	"female"	"right"	"Other"	157	"t09_2_p2_2_mono.wav"	"le f'nouil"	"yes"	"yes"	"match"	"r"	"yes"	820	1404	584	5	"yes"	7.24708058458576	1585	7.36833968631138	"correct"	3	2	2	3	2	2.25	-2	"L"	"I"	"I"	"no"
"t10"	17	"17 t10"	1	"A1"	"1"	18	"male"	"right"	"Other"	68	"t10_1_p1_2_mono.wav"	"le rebond"	"yes"	"yes"	"match"	"u"	"yes"	640	1608	968	5	"yes"	7.38274644973891	2347	7.76089319585102	"wrong"	3	2	1	2	2	1.75	-5	"I"	"I"	"I"	"yes"
"t10"	50	"50 t10"	1	"B2"	"2"	18	"female"	"right"	"Nadia"	166	"t10_1_p1_2_mono.wav"	"le rebond"	"yes"	"yes"	"mismatch"	"u"	"yes"	640	1145	505	5	"yes"	7.04315991598834	1255	7.13489085156588	"correct"	3	2	2	5	2	2.75	8	"I"	"I"	"I"	"yes"
"t10"	23	"23 t10"	1	"B2"	"1"	23	"female"	"right"	"Ferdy"	166	"t10_1_p1_2_mono.wav"	"le rebond"	"yes"	"yes"	"match"	"u"	"yes"	640	1471	831	5	"yes"	7.29369772060144	1501	7.31388683163346	"wrong"	3	3	2	2	1	2	NA	"I"	"I"	"I"	"yes"
"t10"	41	"41 t10"	1	"D1"	"1"	19	"male"	"right"	"Ilse"	148	"t10_1_p1_2_mono.wav"	"le rebond"	"yes"	"yes"	"match"	"u"	"yes"	640	1475	835	5	"yes"	7.29641326877392	972	6.87935580446044	"correct"	3	3	3	3	2	2.75	-6	"I"	"I"	"I"	"yes"
"t10"	5	"5 t10"	1	"B1"	"1"	20	"female"	"right"	"Other"	166	"t10_2_p2_2_mono.wav"	"le r'bond"	"yes"	"yes"	"mismatch"	"r"	"yes"	747	1227	480	5	"yes"	7.11232744471091	955	6.86171134048073	"correct"	2	2	2	2	3	2.25	-3	"I"	"I"	"I"	"yes"
"t10"	35	"35 t10"	1	"C2"	"1"	20	"male"	"left"	"Other"	84	"t10_1_p1_2_mono.wav"	"le rebond"	"yes"	"yes"	"match"	"u"	"yes"	640	1320	680	1	"yes"	7.18538701558042	1913	7.55642796944025	"correct"	3	2	2	2	1	1.75	4	"I"	"I"	"I"	"yes"
"t10"	26	"26 t10"	1	"C1"	"2"	23	"female"	"right"	"Other"	84	"t10_2_p2_2_mono.wav"	"le r'bond"	"yes"	"yes"	"match"	"r"	"yes"	747	1779	1032	5	"yes"	7.48380668766583	1756	7.47079377419506	"correct"	3	1	2	2	1	1.5	-3	"I"	"I"	"I"	"yes"
"t10"	47	"47 t10"	1	"B1"	"1"	23	"female"	"left"	"Ferdy"	166	"t10_2_p2_2_mono.wav"	"le r'bond"	"yes"	"yes"	"mismatch"	"r"	"yes"	747	3419	2672	1	"yes"	8.1371033896393	2798	7.93666015522543	"correct"	3	1	1	1	1	1	-7	"I"	"I"	"I"	"yes"
"t10"	45	"45 t10"	1	"A2"	"1"	19	"male"	"right"	"Ilse"	68	"t10_2_p2_2_mono.wav"	"le r'bond"	"yes"	"yes"	"mismatch"	"r"	"yes"	747	1592	845	5	"yes"	7.37274636640433	1745	7.46450983463653	"correct"	3	1	2	1	1	1.25	-6	"I"	"I"	"I"	"yes"
"t10"	46	"46 t10"	1	"A2"	"2"	22	"female"	"right"	"Ilse"	68	"t10_2_p2_2_mono.wav"	"le r'bond"	"yes"	"yes"	"match"	"r"	"yes"	747	1456	709	5	"yes"	7.28344822875663	1716	7.44775128004791	"correct"	3	2	2	3	2	2.25	-2	"I"	"I"	"I"	"yes"
"t10"	12	"12 t10"	1	"C2"	"2"	20	"female"	"right"	"Ferdy"	84	"t10_1_p1_2_mono.wav"	"le rebond"	"yes"	"yes"	"mismatch"	"u"	"yes"	640	1136	496	5	"yes"	7.0352685992811	1439	7.27170370688737	"correct"	2	2	2	1	1	1.5	-9	"I"	"I"	"I"	"yes"
"t10"	6	"6 t10"	1	"B1"	"2"	20	"female"	"right"	"Other"	166	"t10_2_p2_2_mono.wav"	"le r'bond"	"yes"	"yes"	"match"	"r"	"yes"	747	1985	1238	5	"yes"	7.59337419312129	1264	7.1420365747068	"correct"	3	1	2	2	1	1.5	-5	"I"	"I"	"I"	"yes"
"t10"	30	"30 t10"	1	"D1"	"2"	18	"female"	"right"	"Nadia"	148	"t10_1_p1_2_mono.wav"	"le rebond"	"yes"	"yes"	"mismatch"	"u"	"yes"	640	1637	997	5	"yes"	7.40062057737113	1268	7.14519613499717	"correct"	3	1	2	2	1	1.5	1	"I"	"I"	"I"	"yes"
"t10"	7	"7 t10"	1	"B2"	"1"	19	"female"	"right"	"Other"	166	"t10_1_p1_2_mono.wav"	"le rebond"	"yes"	"yes"	"match"	"u"	"yes"	640	2288	1648	5	"yes"	7.73543335249969	1523	7.32843735289516	"correct"	3	1	1	1	1	1	-6	"I"	"I"	"I"	"yes"
"t10"	29	"29 t10"	1	"D1"	"1"	24	"female"	"right"	"Nadia"	148	"t10_1_p1_2_mono.wav"	"le rebond"	"yes"	"yes"	"match"	"u"	"yes"	640	1212	572	5	"yes"	7.10002716662926	1544	7.34213173058472	"correct"	6	2	3	4	2	2.75	-9	"I"	"I"	"I"	"yes"
"t10"	21	"21 t10"	1	"B1"	"1"	18	"female"	"right"	"Other"	166	"t10_2_p2_2_mono.wav"	"le r'bond"	"yes"	"yes"	"mismatch"	"r"	"yes"	747	3288	2541	5	"yes"	8.09803475617607	1339	7.19967834569117	"correct"	3	2	1	2	2	1.75	-5	"I"	"I"	"I"	"yes"
"t10"	3	"3 t10"	1	"A2"	"1"	23	"female"	"left"	"Other"	68	"t10_2_p2_2_mono.wav"	"le r'bond"	"yes"	"yes"	"mismatch"	"r"	"yes"	747	1652	905	1	"yes"	7.40974195408092	1959	7.58018941794454	"correct"	3.5	2	2	3	2	2.25	-3	"I"	"I"	"I"	"yes"
"t10"	8	"8 t10"	1	"B2"	"2"	22	"female"	"right"	"Other"	166	"t10_1_p1_2_mono.wav"	"le rebond"	"yes"	"yes"	"mismatch"	"u"	"yes"	640	1216	576	5	"yes"	7.10332206252611	2504	7.82564473221999	"wrong"	3	2	2	2	1	1.75	-4	"I"	"I"	"I"	"yes"
"t10"	43	"43 t10"	1	"A1"	"1"	18	"male"	"right"	"Ilse"	68	"t10_1_p1_2_mono.wav"	"le rebond"	"yes"	"yes"	"match"	"u"	"yes"	640	1197	557	5	"yes"	7.08757370555797	1550	7.34601020991329	"correct"	3	3	1	5	2	2.75	11	"I"	"I"	"I"	"yes"
"t10"	22	"22 t10"	1	"B1"	"2"	22	"female"	"right"	"Ferdy"	166	"t10_2_p2_2_mono.wav"	"le r'bond"	"yes"	"yes"	"match"	"r"	"yes"	747	1323	576	5	"yes"	7.18765716411496	929	6.83410873881384	"wrong"	3	2	2	2	2	2	-6	"I"	"I"	"I"	"yes"
"t10"	32	"32 t10"	1	"D2"	"2"	18	"male"	"right"	"Other"	148	"t10_2_p2_2_mono.wav"	"le r'bond"	"yes"	"yes"	"match"	"r"	"yes"	747	1408	661	5	"yes"	7.24992553671799	1655	7.41155628781116	"correct"	3	1	1	1	1	1	-4	"I"	"I"	"I"	"yes"
"t10"	13	"13 t10"	1	"D1"	"1"	21	"male"	"right"	"Nadia"	148	"t10_1_p1_2_mono.wav"	"le rebond"	"yes"	"yes"	"match"	"u"	"yes"	640	1295	655	5	"yes"	7.16626597413364	1097	7.00033446027523	"correct"	3	3	3	4	2	3	3	"I"	"I"	"I"	"yes"
"t10"	33	"33 t10"	1	"C1"	"1"	18	"female"	"right"	"Ilse"	84	"t10_2_p2_2_mono.wav"	"le r'bond"	"yes"	"yes"	"mismatch"	"r"	"yes"	747	1552	805	5	"yes"	7.34729970074316	2557	7.84658997529119	"correct"	3	2	3	4	2	2.75	6	"I"	"I"	"I"	"yes"
"t10"	34	"34 t10"	1	"C1"	"2"	18	"female"	"right"	"Ilse"	84	"t10_2_p2_2_mono.wav"	"le r'bond"	"yes"	"yes"	"match"	"r"	"yes"	747	1812	1065	5	"yes"	7.50218648660292	1949	7.57507169950756	"correct"	3	2	3	3	4	3	-5	"I"	"I"	"I"	"yes"
"t10"	9	"9 t10"	1	"C1"	"1"	18	"female"	"right"	"Other"	84	"t10_2_p2_2_mono.wav"	"le r'bond"	"yes"	"yes"	"mismatch"	"r"	"yes"	747	1822	1075	5	"yes"	7.5076900778199	1096	6.99942246750796	"wrong"	3	4	3	4	2	3.25	-3	"I"	"I"	"I"	"yes"
"t10"	10	"10 t10"	1	"C1"	"2"	19	"female"	"left"	"Other"	84	"t10_2_p2_2_mono.wav"	"le r'bond"	"yes"	"yes"	"match"	"r"	"yes"	747	1091	344	1	"yes"	6.99484998583307	1430	7.26542972325395	"correct"	3	3	1	2	3	2.25	4	"I"	"I"	"I"	"yes"
"t10"	27	"27 t10"	1	"C2"	"1"	22	"male"	"right"	"Other"	84	"t10_1_p1_2_mono.wav"	"le rebond"	"yes"	"yes"	"match"	"u"	"yes"	640	875	235	5	"yes"	6.77422388635761	1514	7.32251043399739	"correct"	3	1	2	2	1	1.5	11	"I"	"I"	"I"	"yes"
"t10"	42	"42 t10"	1	"D2"	"1"	20	"male"	"right"	"Ilse"	148	"t10_2_p2_2_mono.wav"	"le r'bond"	"yes"	"yes"	"mismatch"	"r"	"yes"	747	1883	1136	5	"yes"	7.54062152865715	1063	6.96885037834195	"wrong"	3	2	2	3	1	2	5	"I"	"I"	"I"	"yes"
"t10"	2	"2 t10"	1	"A1"	"2"	21	"female"	"right"	"Other"	68	"t10_1_p1_2_mono.wav"	"le rebond"	"yes"	"yes"	"mismatch"	"u"	"yes"	640	1347	707	5	"yes"	7.20563517641036	2096	7.64778604544093	"correct"	3	2	2	3	2	2.25	-2	"I"	"I"	"I"	"yes"
"t10"	28	"28 t10"	1	"C2"	"2"	22	"female"	"right"	"Ferdy"	84	"t10_1_p1_2_mono.wav"	"le rebond"	"yes"	"yes"	"mismatch"	"u"	"yes"	640	2414	1774	5	"yes"	7.78904040165748	2021	7.61134771740362	"correct"	2	1	2	1	1	1.25	-8	"I"	"I"	"I"	"yes"
"t10"	1	"1 t10"	1	"A1"	"1"	22	"female"	"right"	"Other"	68	"t10_1_p1_2_mono.wav"	"le rebond"	"yes"	"yes"	"match"	"u"	"yes"	640	1595	955	5	"yes"	7.37462901521894	2532	7.83676478326407	"correct"	3	1	2	2	1	1.5	-7	"I"	"I"	"I"	"yes"
"t10"	36	"36 t10"	1	"C2"	"2"	21	"male"	"right"	"Other"	84	"t10_1_p1_2_mono.wav"	"le rebond"	"yes"	"yes"	"mismatch"	"u"	"yes"	640	1115	475	5	"yes"	7.01660968389422	1927	7.56371966841437	"correct"	3	2	3	4	2	2.75	-12	"I"	"I"	"I"	"yes"
"t10"	14	"14 t10"	1	"D1"	"2"	19	"female"	"right"	"Other"	148	"t10_1_p1_2_mono.wav"	"le rebond"	"yes"	"yes"	"mismatch"	"u"	"yes"	640	1808	1168	5	"yes"	7.49997654095212	1329	7.19218205871325	"correct"	3	2	1	2	2	1.75	1	"I"	"I"	"I"	"yes"
"t11"	50	"50 t11"	1	"B2"	"2"	18	"female"	"right"	"Nadia"	55	"t11_1_p3_2_mono.wav"	"le remous"	"yes"	"yes"	"mismatch"	"u"	"yes"	553	1409	856	5	"yes"	7.25063551189868	3415	8.13593277200489	"correct"	3	2	2	5	2	2.75	8	"I"	"I"	"I"	"yes"
"t11"	24	"24 t11"	1	"B2"	"2"	18	"female"	"right"	"Ferdy"	55	"t11_1_p3_2_mono.wav"	"le remous"	"yes"	"yes"	"mismatch"	"u"	"yes"	553	1066	513	5	"yes"	6.97166860472579	1780	7.48436864328613	"wrong"	3	1	3	3	1	2	2	"I"	"I"	"I"	"yes"
"t11"	13	"13 t11"	1	"D1"	"1"	21	"male"	"right"	"Nadia"	169	"t11_2_p3_2_mono.wav"	"le r'mous"	"yes"	"yes"	"mismatch"	"r"	"yes"	562	1535	973	5	"yes"	7.3362856600213	1649	7.4079243225596	"correct"	3	3	3	4	2	3	3	"I"	"I"	"I"	"yes"
"t11"	46	"46 t11"	1	"A2"	"2"	22	"female"	"right"	"Ilse"	37	"t11_1_p3_2_mono.wav"	"le remous"	"yes"	"yes"	"mismatch"	"u"	"yes"	553	2714	2161	5	"yes"	7.90617884039481	3407	8.13358741766097	"correct"	3	2	2	3	2	2.25	-2	"I"	"I"	"I"	"yes"
"t11"	41	"41 t11"	1	"D1"	"1"	19	"male"	"right"	"Ilse"	169	"t11_2_p3_2_mono.wav"	"le r'mous"	"yes"	"yes"	"mismatch"	"r"	"yes"	562	1661	1099	5	"yes"	7.41517510961329	4366	8.38160253710989	"correct"	3	3	3	3	2	2.75	-6	"I"	"I"	"I"	"yes"
"t11"	45	"45 t11"	1	"A2"	"1"	19	"male"	"right"	"Ilse"	37	"t11_1_p3_2_mono.wav"	"le remous"	"yes"	"yes"	"match"	"u"	"yes"	553	1339	786	5	"yes"	7.19967834569117	1984	7.59287028784482	"wrong"	3	1	2	1	1	1.25	-6	"I"	"I"	"I"	"yes"
"t11"	9	"9 t11"	1	"C1"	"1"	18	"female"	"right"	"Other"	98	"t11_1_p3_2_mono.wav"	"le remous"	"yes"	"yes"	"match"	"u"	"yes"	553	1076	523	5	"yes"	6.98100574072173	1178	7.07157336421153	"correct"	3	4	3	4	2	3.25	-3	"I"	"I"	"I"	"yes"
"t11"	47	"47 t11"	1	"B1"	"1"	23	"female"	"left"	"Ferdy"	55	"t11_2_p3_2_mono.wav"	"le r'mous"	"yes"	"yes"	"mismatch"	"r"	"yes"	562	2057	1495	1	"yes"	7.62900388965296	1655	7.41155628781116	"correct"	3	1	1	1	1	1	-7	"I"	"I"	"I"	"yes"
"t11"	35	"35 t11"	1	"C2"	"1"	20	"male"	"left"	"Other"	98	"t11_2_p3_2_mono.wav"	"le r'mous"	"yes"	"yes"	"mismatch"	"r"	"yes"	562	1123	561	1	"yes"	7.02375895473844	1267	7.14440718032114	"correct"	3	2	2	2	1	1.75	4	"I"	"I"	"I"	"yes"
"t11"	8	"8 t11"	1	"B2"	"2"	22	"female"	"right"	"Other"	55	"t11_1_p3_2_mono.wav"	"le remous"	"yes"	"yes"	"mismatch"	"u"	"yes"	553	1242	689	5	"yes"	7.12447826249342	1095	6.9985096422506	"correct"	3	2	2	2	1	1.75	-4	"I"	"I"	"I"	"yes"
"t11"	49	"49 t11"	1	"B2"	"1"	19	"female"	"left"	"Other"	55	"t11_1_p3_2_mono.wav"	"le remous"	"yes"	"yes"	"match"	"u"	"yes"	553	1366	813	1	"yes"	7.21964204013074	2508	7.82724090175281	"correct"	3	1	1	2	2	1.5	-2	"I"	"I"	"I"	"yes"
"t11"	1	"1 t11"	1	"A1"	"1"	22	"female"	"right"	"Other"	37	"t11_2_p3_2_mono.wav"	"le r'mous"	"yes"	"yes"	"mismatch"	"r"	"yes"	562	1681	1119	5	"yes"	7.42714413340862	1450	7.27931883541462	"correct"	3	1	2	2	1	1.5	-7	"I"	"I"	"I"	"yes"
"t11"	33	"33 t11"	1	"C1"	"1"	18	"female"	"right"	"Ilse"	98	"t11_1_p3_2_mono.wav"	"le remous"	"yes"	"yes"	"match"	"u"	"yes"	553	2290	1737	5	"yes"	7.73630709654828	1704	7.44073370738926	"correct"	3	2	3	4	2	2.75	6	"I"	"I"	"I"	"yes"
"t11"	12	"12 t11"	1	"C2"	"2"	20	"female"	"right"	"Ferdy"	98	"t11_2_p3_2_mono.wav"	"le r'mous"	"yes"	"yes"	"match"	"r"	"yes"	562	1085	523	5	"yes"	6.98933526597456	1304	7.1731917424866	"correct"	2	2	2	1	1	1.5	-9	"I"	"I"	"I"	"yes"
"t11"	29	"29 t11"	1	"D1"	"1"	24	"female"	"right"	"Nadia"	169	"t11_2_p3_2_mono.wav"	"le r'mous"	"yes"	"yes"	"mismatch"	"r"	"yes"	562	1977	1415	5	"yes"	7.58933582317062	2146	7.67136092319064	"correct"	6	2	3	4	2	2.75	-9	"I"	"I"	"I"	"yes"
"t11"	28	"28 t11"	1	"C2"	"2"	22	"female"	"right"	"Ferdy"	98	"t11_2_p3_2_mono.wav"	"le r'mous"	"yes"	"yes"	"match"	"r"	"yes"	562	1655	1093	5	"yes"	7.41155628781116	1871	7.53422832627409	"correct"	2	1	2	1	1	1.25	-8	"I"	"I"	"I"	"yes"
"t11"	14	"14 t11"	1	"D1"	"2"	19	"female"	"right"	"Other"	169	"t11_2_p3_2_mono.wav"	"le r'mous"	"yes"	"yes"	"match"	"r"	"yes"	562	1519	957	5	"yes"	7.32580750259577	1270	7.14677217945264	"correct"	3	2	1	2	2	1.75	1	"I"	"I"	"I"	"yes"
"t11"	16	"16 t11"	1	"D2"	"2"	19	"female"	"right"	"Other"	169	"t11_1_p3_2_mono.wav"	"le remous"	"yes"	"yes"	"mismatch"	"u"	"yes"	553	1189	636	5	"yes"	7.08086789669078	1583	7.36707705988101	"correct"	5	1	2	1	1	1.25	1	"I"	"I"	"I"	"yes"
"t11"	7	"7 t11"	1	"B2"	"1"	19	"female"	"right"	"Other"	55	"t11_1_p3_2_mono.wav"	"le remous"	"yes"	"yes"	"match"	"u"	"yes"	553	1426	873	5	"yes"	7.26262860097424	1946	7.57353126274595	"correct"	3	1	1	1	1	1	-6	"I"	"I"	"I"	"yes"
"t11"	34	"34 t11"	1	"C1"	"2"	18	"female"	"right"	"Ilse"	98	"t11_1_p3_2_mono.wav"	"le remous"	"yes"	"yes"	"mismatch"	"u"	"yes"	553	1546	993	5	"yes"	7.34342622914737	1783	7.48605261786314	"correct"	3	2	3	3	4	3	-5	"I"	"I"	"I"	"yes"
"t11"	15	"15 t11"	1	"D1"	"1"	20	"female"	"right"	"Other"	169	"t11_2_p3_2_mono.wav"	"le r'mous"	"yes"	"yes"	"mismatch"	"r"	"yes"	562	1364	802	5	"yes"	7.21817683840341	1222	7.10824413973154	"correct"	6	4	3	3	3	3.25	-4	"I"	"I"	"I"	"yes"
"t11"	42	"42 t11"	1	"D2"	"1"	20	"male"	"right"	"Ilse"	169	"t11_1_p3_2_mono.wav"	"le remous"	"yes"	"yes"	"match"	"u"	"yes"	553	2064	1511	5	"yes"	7.63240112660145	3338	8.11312710422178	"correct"	3	2	2	3	1	2	5	"I"	"I"	"I"	"yes"
"t11"	5	"5 t11"	1	"B1"	"1"	20	"female"	"right"	"Other"	55	"t11_2_p3_2_mono.wav"	"le r'mous"	"yes"	"yes"	"mismatch"	"r"	"yes"	562	1184	622	5	"yes"	7.07665381544395	1482	7.30114780585603	"wrong"	2	2	2	2	3	2.25	-3	"I"	"I"	"I"	"yes"
"t11"	20	"20 t11"	1	"A2"	"2"	21	"male"	"right"	"Other"	37	"t11_1_p3_2_mono.wav"	"le remous"	"yes"	"yes"	"mismatch"	"u"	"yes"	553	2774	2221	5	"yes"	7.92804560087478	1756	7.47079377419506	"correct"	2	3	2	2	1	2	-2	"I"	"I"	"I"	"yes"
"t11"	43	"43 t11"	1	"A1"	"1"	18	"male"	"right"	"Ilse"	37	"t11_2_p3_2_mono.wav"	"le r'mous"	"yes"	"yes"	"mismatch"	"r"	"yes"	562	1043	481	5	"yes"	6.94985645500077	1142	7.04053639021596	"correct"	3	3	1	5	2	2.75	11	"I"	"I"	"I"	"yes"
"t12"	21	"21 t12"	1	"B1"	"1"	18	"female"	"right"	"Other"	40	"t12_1_p4_2_mono.wav"	"le requin"	"yes"	"yes"	"match"	"u"	"yes"	619	1485	866	5	"yes"	7.3031700512368	2097	7.64826303090192	"correct"	3	2	1	2	2	1.75	-5	"I"	"I"	"I"	"yes"
"t12"	10	"10 t12"	1	"C1"	"2"	19	"female"	"left"	"Other"	46	"t12_2_p4_2_mono.wav"	"le r'quin"	"yes"	"yes"	"match"	"r"	"yes"	641	1647	1006	1	"yes"	7.40671073017764	1382	7.23128700432762	"correct"	3	3	1	2	3	2.25	4	"I"	"I"	"I"	"yes"
"t12"	46	"46 t12"	1	"A2"	"2"	22	"female"	"right"	"Ilse"	177	"t12_2_p4_2_mono.wav"	"le r'quin"	"yes"	"yes"	"match"	"r"	"yes"	641	1659	1018	5	"yes"	7.41397029019044	2680	7.8935720735049	"correct"	3	2	2	3	2	2.25	-2	"I"	"I"	"I"	"yes"
"t12"	45	"45 t12"	1	"A2"	"1"	19	"male"	"right"	"Ilse"	177	"t12_2_p4_2_mono.wav"	"le r'quin"	"yes"	"yes"	"mismatch"	"r"	"yes"	641	1054	413	5	"yes"	6.96034772910131	1205	7.09423484592476	"correct"	3	1	2	1	1	1.25	-6	"I"	"I"	"I"	"yes"
"t12"	9	"9 t12"	1	"C1"	"1"	18	"female"	"right"	"Other"	46	"t12_2_p4_2_mono.wav"	"le r'quin"	"yes"	"yes"	"mismatch"	"r"	"yes"	641	1327	686	5	"yes"	7.19067603433221	2272	7.72841577984104	"correct"	3	4	3	4	2	3.25	-3	"I"	"I"	"I"	"yes"
"t12"	13	"13 t12"	1	"D1"	"1"	21	"male"	"right"	"Nadia"	188	"t12_1_p4_2_mono.wav"	"le requin"	"yes"	"yes"	"match"	"u"	"yes"	619	1056	437	5	"yes"	6.96224346426621	2352	7.76302130901852	"wrong"	3	3	3	4	2	3	3	"I"	"I"	"I"	"yes"
"t12"	49	"49 t12"	1	"B2"	"1"	19	"female"	"left"	"Other"	40	"t12_2_p4_2_mono.wav"	"le r'quin"	"yes"	"yes"	"mismatch"	"r"	"yes"	641	1552	911	1	"yes"	7.34729970074316	1620	7.39018142822643	"correct"	3	1	1	2	2	1.5	-2	"I"	"I"	"I"	"yes"
"t12"	11	"11 t12"	1	"C2"	"1"	20	"female"	"right"	"Other"	46	"t12_1_p4_2_mono.wav"	"le requin"	"yes"	"yes"	"match"	"u"	"yes"	619	1075	456	5	"yes"	6.98007594056176	1266	7.14361760270412	"correct"	3	1	2	2	1	1.5	7	"I"	"I"	"I"	"yes"
"t12"	28	"28 t12"	1	"C2"	"2"	22	"female"	"right"	"Ferdy"	46	"t12_1_p4_2_mono.wav"	"le requin"	"yes"	"yes"	"mismatch"	"u"	"yes"	619	972	353	5	"yes"	6.87935580446044	1614	7.38647084882989	"correct"	2	1	2	1	1	1.25	-8	"I"	"I"	"I"	"yes"
"t12"	35	"35 t12"	1	"C2"	"1"	20	"male"	"left"	"Other"	46	"t12_1_p4_2_mono.wav"	"le requin"	"yes"	"yes"	"match"	"u"	"yes"	619	1097	478	1	"yes"	7.00033446027523	1274	7.14991683613211	"correct"	3	2	2	2	1	1.75	4	"I"	"I"	"I"	"yes"
"t12"	41	"41 t12"	1	"D1"	"1"	19	"male"	"right"	"Ilse"	188	"t12_1_p4_2_mono.wav"	"le requin"	"yes"	"yes"	"match"	"u"	"yes"	619	951	332	5	"yes"	6.85751406254539	3715	8.22013395715186	"wrong"	3	3	3	3	2	2.75	-6	"I"	"I"	"I"	"yes"
"t12"	24	"24 t12"	1	"B2"	"2"	18	"female"	"right"	"Ferdy"	40	"t12_2_p4_2_mono.wav"	"le r'quin"	"yes"	"yes"	"match"	"r"	"yes"	641	1207	566	5	"yes"	7.09589322109753	1219	7.10578612948127	"correct"	3	1	3	3	1	2	2	"I"	"I"	"I"	"yes"
"t12"	27	"27 t12"	1	"C2"	"1"	22	"male"	"right"	"Other"	46	"t12_1_p4_2_mono.wav"	"le requin"	"yes"	"yes"	"match"	"u"	"yes"	619	1012	393	5	"yes"	6.91968384984741	1460	7.28619171470238	"correct"	3	1	2	2	1	1.5	11	"I"	"I"	"I"	"yes"
"t12"	50	"50 t12"	1	"B2"	"2"	18	"female"	"right"	"Nadia"	40	"t12_2_p4_2_mono.wav"	"le r'quin"	"yes"	"yes"	"match"	"r"	"yes"	641	1324	683	5	"yes"	7.18841273649695	2005	7.60339933974067	"correct"	3	2	2	5	2	2.75	8	"I"	"I"	"I"	"yes"
"t12"	12	"12 t12"	1	"C2"	"2"	20	"female"	"right"	"Ferdy"	46	"t12_1_p4_2_mono.wav"	"le requin"	"yes"	"yes"	"mismatch"	"u"	"yes"	619	1354	735	5	"yes"	7.21081845347222	1252	7.13249755166004	"correct"	2	2	2	1	1	1.5	-9	"I"	"I"	"I"	"yes"
"t12"	2	"2 t12"	1	"A1"	"2"	21	"female"	"right"	"Other"	177	"t12_1_p4_2_mono.wav"	"le requin"	"yes"	"yes"	"mismatch"	"u"	"yes"	619	1033	414	5	"yes"	6.94022246911964	1503	7.31521838975297	"correct"	3	2	2	3	2	2.25	-2	"I"	"I"	"I"	"yes"
"t12"	1	"1 t12"	1	"A1"	"1"	22	"female"	"right"	"Other"	177	"t12_1_p4_2_mono.wav"	"le requin"	"yes"	"yes"	"match"	"u"	"yes"	619	1530	911	5	"yes"	7.33302301438648	2241	7.71467747380093	"wrong"	3	1	2	2	1	1.5	-7	"I"	"I"	"I"	"yes"
"t12"	22	"22 t12"	1	"B1"	"2"	22	"female"	"right"	"Ferdy"	40	"t12_1_p4_2_mono.wav"	"le requin"	"yes"	"yes"	"mismatch"	"u"	"yes"	619	912	293	5	"yes"	6.81563999007433	1029	6.93634273583405	"correct"	3	2	2	2	2	2	-6	"I"	"I"	"I"	"yes"
"t12"	17	"17 t12"	1	"A1"	"1"	18	"male"	"right"	"Other"	177	"t12_1_p4_2_mono.wav"	"le requin"	"yes"	"yes"	"match"	"u"	"yes"	619	1441	822	5	"yes"	7.27309259599952	4144	8.32941678393932	"correct"	3	2	1	2	2	1.75	-5	"I"	"I"	"I"	"yes"
"t12"	3	"3 t12"	1	"A2"	"1"	23	"female"	"left"	"Other"	177	"t12_2_p4_2_mono.wav"	"le r'quin"	"yes"	"yes"	"mismatch"	"r"	"yes"	641	1102	461	1	"yes"	7.00488198971286	1170	7.0647590277918	"wrong"	3.5	2	2	3	2	2.25	-3	"I"	"I"	"I"	"yes"
"t12"	8	"8 t12"	1	"B2"	"2"	22	"female"	"right"	"Other"	40	"t12_2_p4_2_mono.wav"	"le r'quin"	"yes"	"yes"	"match"	"r"	"yes"	641	1261	620	5	"yes"	7.13966033596492	2693	7.8984110928116	"correct"	3	2	2	2	1	1.75	-4	"I"	"I"	"I"	"yes"
"t12"	25	"25 t12"	1	"C1"	"1"	18	"female"	"right"	"Ferdy"	46	"t12_2_p4_2_mono.wav"	"le r'quin"	"yes"	"yes"	"mismatch"	"r"	"yes"	641	1212	571	5	"yes"	7.10002716662926	2970	7.99631723179675	"correct"	6	4	4	4	3	3.75	-15	"I"	"I"	"I"	"yes"
"t12"	34	"34 t12"	1	"C1"	"2"	18	"female"	"right"	"Ilse"	46	"t12_2_p4_2_mono.wav"	"le r'quin"	"yes"	"yes"	"match"	"r"	"yes"	641	1325	684	5	"yes"	7.18916773842032	1621	7.39079852173568	"correct"	3	2	3	3	4	3	-5	"I"	"I"	"I"	"yes"
"t12"	23	"23 t12"	1	"B2"	"1"	23	"female"	"right"	"Ferdy"	40	"t12_2_p4_2_mono.wav"	"le r'quin"	"yes"	"yes"	"mismatch"	"r"	"yes"	641	1157	516	5	"yes"	7.05358572719368	1321	7.18614430452233	"correct"	3	3	2	2	1	2	NA	"I"	"I"	"I"	"yes"
"t12"	32	"32 t12"	1	"D2"	"2"	18	"male"	"right"	"Other"	188	"t12_2_p4_2_mono.wav"	"le r'quin"	"yes"	"yes"	"match"	"r"	"yes"	641	1870	1229	5	"yes"	7.53369370984863	2239	7.71378461659875	"correct"	3	1	1	1	1	1	-4	"I"	"I"	"I"	"yes"
"t12"	36	"36 t12"	1	"C2"	"2"	21	"male"	"right"	"Other"	46	"t12_1_p4_2_mono.wav"	"le requin"	"yes"	"yes"	"mismatch"	"u"	"yes"	619	1069	450	5	"yes"	6.97447891102505	1636	7.40000951716269	"correct"	3	2	3	4	2	2.75	-12	"I"	"I"	"I"	"yes"
"t12"	33	"33 t12"	1	"C1"	"1"	18	"female"	"right"	"Ilse"	46	"t12_2_p4_2_mono.wav"	"le r'quin"	"yes"	"yes"	"mismatch"	"r"	"yes"	641	1948	1307	5	"yes"	7.57455848420248	3138	8.05134093329298	"wrong"	3	2	3	4	2	2.75	6	"I"	"I"	"I"	"yes"
"t12"	51	"51 t12"	1	"B1"	"2"	18	"female"	"right"	"Nadia"	40	"t12_1_p4_2_mono.wav"	"le requin"	"yes"	"yes"	"mismatch"	"u"	"yes"	619	1555	936	5	"yes"	7.34923082461333	1568	7.35755620091035	"correct"	6	4	4	4	4	4	-7	"I"	"I"	"I"	"yes"
"t12"	47	"47 t12"	1	"B1"	"1"	23	"female"	"left"	"Ferdy"	40	"t12_1_p4_2_mono.wav"	"le requin"	"yes"	"yes"	"match"	"u"	"yes"	619	1338	719	1	"yes"	7.19893124068817	1821	7.50714107972761	"wrong"	3	1	1	1	1	1	-7	"I"	"I"	"I"	"yes"
"t12"	16	"16 t12"	1	"D2"	"2"	19	"female"	"right"	"Other"	188	"t12_2_p4_2_mono.wav"	"le r'quin"	"yes"	"yes"	"match"	"r"	"yes"	641	886	245	5	"yes"	6.78671695060508	1778	7.48324441607385	"correct"	5	1	2	1	1	1.25	1	"I"	"I"	"I"	"yes"
"t12"	29	"29 t12"	1	"D1"	"1"	24	"female"	"right"	"Nadia"	188	"t12_1_p4_2_mono.wav"	"le requin"	"yes"	"yes"	"match"	"u"	"yes"	619	1209	590	5	"yes"	7.09754885061479	1592	7.37274636640433	"correct"	6	2	3	4	2	2.75	-9	"I"	"I"	"I"	"yes"
"t12"	42	"42 t12"	1	"D2"	"1"	20	"male"	"right"	"Ilse"	188	"t12_2_p4_2_mono.wav"	"le r'quin"	"yes"	"yes"	"mismatch"	"r"	"yes"	641	1412	771	5	"yes"	7.25276241805319	1359	7.21450441415114	"correct"	3	2	2	3	1	2	5	"I"	"I"	"I"	"yes"
"t12"	43	"43 t12"	1	"A1"	"1"	18	"male"	"right"	"Ilse"	177	"t12_1_p4_2_mono.wav"	"le requin"	"yes"	"yes"	"match"	"u"	"yes"	619	930	311	5	"yes"	6.8351845861473	1180	7.07326971745971	"correct"	3	3	1	5	2	2.75	11	"I"	"I"	"I"	"yes"
"t12"	5	"5 t12"	1	"B1"	"1"	20	"female"	"right"	"Other"	40	"t12_1_p4_2_mono.wav"	"le requin"	"yes"	"yes"	"match"	"u"	"yes"	619	1234	615	5	"yes"	7.11801620446533	1097	7.00033446027523	"wrong"	2	2	2	2	3	2.25	-3	"I"	"I"	"I"	"yes"
"t12"	6	"6 t12"	1	"B1"	"2"	20	"female"	"right"	"Other"	40	"t12_1_p4_2_mono.wav"	"le requin"	"yes"	"yes"	"mismatch"	"u"	"yes"	619	1041	422	5	"yes"	6.94793706861497	1187	7.07918439460967	"correct"	3	1	2	2	1	1.5	-5	"I"	"I"	"I"	"yes"
"t13"	35	"35 t13"	1	"C2"	"1"	20	"male"	"left"	"Other"	43	"t13_1_p3_2_mono.wav"	"le sevrage"	"yes"	"yes"	"match"	"u"	"yes"	976	1673	697	1	"yes"	7.42237370098682	2264	7.72488843932307	"correct"	3	2	2	2	1	1.75	4	"L"	"I"	"L"	"no"
"t13"	50	"50 t13"	1	"B2"	"2"	18	"female"	"right"	"Nadia"	46	"t13_1_p3_2_mono.wav"	"le sevrage"	"yes"	"yes"	"mismatch"	"u"	"yes"	976	1567	591	5	"yes"	7.35691824235602	4917	8.50045386741194	"correct"	3	2	2	5	2	2.75	8	"L"	"I"	"L"	"no"
"t13"	1	"1 t13"	1	"A1"	"1"	22	"female"	"right"	"Other"	126	"t13_2_p3_2_mono.wav"	"le s'vrage"	"yes"	"yes"	"mismatch"	"r"	"yes"	998	1387	389	5	"yes"	7.23489842031483	1147	7.04490511712937	"correct"	3	1	2	2	1	1.5	-7	"L"	"I"	"L"	"no"
"t13"	46	"46 t13"	1	"A2"	"2"	22	"female"	"right"	"Ilse"	126	"t13_1_p3_2_mono.wav"	"le sevrage"	"yes"	"yes"	"mismatch"	"u"	"yes"	976	1688	712	5	"yes"	7.4312996751559	2116	7.65728279297819	"correct"	3	2	2	3	2	2.25	-2	"L"	"I"	"L"	"no"
"t13"	45	"45 t13"	1	"A2"	"1"	19	"male"	"right"	"Ilse"	126	"t13_1_p3_2_mono.wav"	"le sevrage"	"yes"	"yes"	"match"	"u"	"yes"	976	1646	670	5	"yes"	7.40610338123702	1257	7.13648320859025	"correct"	3	1	2	1	1	1.25	-6	"L"	"I"	"L"	"no"
"t13"	10	"10 t13"	1	"C1"	"2"	19	"female"	"left"	"Other"	43	"t13_2_p3_2_mono.wav"	"le s'vrage"	"yes"	"yes"	"match"	"r"	"yes"	998	1471	473	1	"yes"	7.29369772060144	1057	6.96318998587024	"correct"	3	3	1	2	3	2.25	4	"L"	"I"	"L"	"no"
"t13"	33	"33 t13"	1	"C1"	"1"	18	"female"	"right"	"Ilse"	43	"t13_2_p3_2_mono.wav"	"le s'vrage"	"yes"	"yes"	"mismatch"	"r"	"yes"	998	2664	1666	5	"yes"	7.88758403166028	4268	8.35890061242164	"wrong"	3	2	3	4	2	2.75	6	"L"	"I"	"L"	"no"
"t13"	13	"13 t13"	1	"D1"	"1"	21	"male"	"right"	"Nadia"	184	"t13_1_p3_2_mono.wav"	"le sevrage"	"yes"	"yes"	"match"	"u"	"yes"	976	1422	446	5	"yes"	7.25981961036319	2138	7.66762609158499	"correct"	3	3	3	4	2	3	3	"L"	"I"	"L"	"no"
"t13"	24	"24 t13"	1	"B2"	"2"	18	"female"	"right"	"Ferdy"	46	"t13_1_p3_2_mono.wav"	"le sevrage"	"yes"	"yes"	"mismatch"	"u"	"yes"	976	1350	374	5	"yes"	7.20785987143248	1077	6.98193467715639	"correct"	3	1	3	3	1	2	2	"L"	"I"	"L"	"no"
"t13"	49	"49 t13"	1	"B2"	"1"	19	"female"	"left"	"Other"	46	"t13_1_p3_2_mono.wav"	"le sevrage"	"yes"	"yes"	"match"	"u"	"yes"	976	1565	589	1	"yes"	7.35564110297425	1708	7.44307837434852	"correct"	3	1	1	2	2	1.5	-2	"L"	"I"	"L"	"no"
"t13"	32	"32 t13"	1	"D2"	"2"	18	"male"	"right"	"Other"	184	"t13_2_p3_2_mono.wav"	"le s'vrage"	"yes"	"yes"	"match"	"r"	"yes"	998	1560	562	5	"yes"	7.35244110024358	3906	8.27026911143662	"correct"	3	1	1	1	1	1	-4	"L"	"I"	"L"	"no"
"t13"	25	"25 t13"	1	"C1"	"1"	18	"female"	"right"	"Ferdy"	43	"t13_2_p3_2_mono.wav"	"le s'vrage"	"yes"	"yes"	"mismatch"	"r"	"yes"	998	1598	600	5	"yes"	7.37650812632622	1882	7.54009032014532	"correct"	6	4	4	4	3	3.75	-15	"L"	"I"	"L"	"no"
"t13"	2	"2 t13"	1	"A1"	"2"	21	"female"	"right"	"Other"	126	"t13_2_p3_2_mono.wav"	"le s'vrage"	"yes"	"yes"	"match"	"r"	"yes"	998	1964	966	5	"yes"	7.58273848891441	3241	8.08363720314155	"correct"	3	2	2	3	2	2.25	-2	"L"	"I"	"L"	"no"
"t13"	20	"20 t13"	1	"A2"	"2"	21	"male"	"right"	"Other"	126	"t13_1_p3_2_mono.wav"	"le sevrage"	"yes"	"yes"	"mismatch"	"u"	"yes"	976	1635	659	5	"yes"	7.39939808333135	1422	7.25981961036319	"correct"	2	3	2	2	1	2	-2	"L"	"I"	"L"	"no"
"t13"	29	"29 t13"	1	"D1"	"1"	24	"female"	"right"	"Nadia"	184	"t13_1_p3_2_mono.wav"	"le sevrage"	"yes"	"yes"	"match"	"u"	"yes"	976	1377	401	5	"yes"	7.22766249872865	1645	7.40549566319947	"correct"	6	2	3	4	2	2.75	-9	"L"	"I"	"L"	"no"
"t13"	22	"22 t13"	1	"B1"	"2"	22	"female"	"right"	"Ferdy"	46	"t13_2_p3_2_mono.wav"	"le s'vrage"	"yes"	"yes"	"match"	"r"	"yes"	998	1826	828	5	"yes"	7.50988306115491	1146	7.04403289727469	"correct"	3	2	2	2	2	2	-6	"L"	"I"	"L"	"no"
"t13"	7	"7 t13"	1	"B2"	"1"	19	"female"	"right"	"Other"	46	"t13_1_p3_2_mono.wav"	"le sevrage"	"yes"	"yes"	"match"	"u"	"yes"	976	1452	476	5	"yes"	7.28069719538474	1819	7.50604217851812	"correct"	3	1	1	1	1	1	-6	"L"	"I"	"L"	"no"
"t13"	36	"36 t13"	1	"C2"	"2"	21	"male"	"right"	"Other"	43	"t13_1_p3_2_mono.wav"	"le sevrage"	"yes"	"yes"	"mismatch"	"u"	"yes"	976	2195	1219	5	"yes"	7.69393732550927	1660	7.41457288135059	"correct"	3	2	3	4	2	2.75	-12	"L"	"I"	"L"	"no"
"t13"	3	"3 t13"	1	"A2"	"1"	23	"female"	"left"	"Other"	126	"t13_1_p3_2_mono.wav"	"le sevrage"	"yes"	"yes"	"match"	"u"	"yes"	976	1763	787	1	"yes"	7.47477218239787	2760	7.9229859587112	"wrong"	3.5	2	2	3	2	2.25	-3	"L"	"I"	"L"	"no"
"t13"	8	"8 t13"	1	"B2"	"2"	22	"female"	"right"	"Other"	46	"t13_1_p3_2_mono.wav"	"le sevrage"	"yes"	"yes"	"mismatch"	"u"	"yes"	976	1117	141	5	"yes"	7.0184017990692	1465	7.28961052145117	"correct"	3	2	2	2	1	1.75	-4	"L"	"I"	"L"	"no"
"t13"	15	"15 t13"	1	"D1"	"1"	20	"female"	"right"	"Other"	184	"t13_1_p3_2_mono.wav"	"le sevrage"	"yes"	"yes"	"match"	"u"	"yes"	976	2095	1119	5	"yes"	7.64730883235624	4790	8.47428569040496	"correct"	6	4	3	3	3	3.25	-4	"L"	"I"	"L"	"no"
"t13"	30	"30 t13"	1	"D1"	"2"	18	"female"	"right"	"Nadia"	184	"t13_1_p3_2_mono.wav"	"le sevrage"	"yes"	"yes"	"mismatch"	"u"	"yes"	976	1989	1013	5	"yes"	7.59538727885397	1331	7.19368581839511	"wrong"	3	1	2	2	1	1.5	1	"L"	"I"	"L"	"no"
"t13"	16	"16 t13"	1	"D2"	"2"	19	"female"	"right"	"Other"	184	"t13_2_p3_2_mono.wav"	"le s'vrage"	"yes"	"yes"	"match"	"r"	"yes"	998	1262	264	5	"yes"	7.14045304310116	1485	7.3031700512368	"wrong"	5	1	2	1	1	1.25	1	"L"	"I"	"L"	"no"
"t13"	51	"51 t13"	1	"B1"	"2"	18	"female"	"right"	"Nadia"	46	"t13_2_p3_2_mono.wav"	"le s'vrage"	"yes"	"yes"	"match"	"r"	"yes"	998	1608	610	5	"yes"	7.38274644973891	2061	7.63094658089046	"wrong"	6	4	4	4	4	4	-7	"L"	"I"	"L"	"no"
"t13"	9	"9 t13"	1	"C1"	"1"	18	"female"	"right"	"Other"	43	"t13_2_p3_2_mono.wav"	"le s'vrage"	"yes"	"yes"	"mismatch"	"r"	"yes"	998	1591	593	5	"yes"	7.37211802833779	1310	7.1777824161952	"correct"	3	4	3	4	2	3.25	-3	"L"	"I"	"L"	"no"
"t13"	27	"27 t13"	1	"C2"	"1"	22	"male"	"right"	"Other"	43	"t13_1_p3_2_mono.wav"	"le sevrage"	"yes"	"yes"	"match"	"u"	"yes"	976	1804	828	5	"yes"	7.49776170062257	1707	7.44249272279444	"correct"	3	1	2	2	1	1.5	11	"L"	"I"	"L"	"no"
"t14"	32	"32 t14"	1	"D2"	"2"	18	"male"	"right"	"Other"	186	"t14_2_p3_2_mono.wav"	"la ch'nille"	"yes"	"yes"	"match"	"r"	"yes"	854	1742	888	5	"yes"	7.46278915741245	4904	8.49780647761605	"correct"	3	1	1	1	1	1	-4	"L"	"I"	"L"	"no"
"t14"	35	"35 t14"	1	"C2"	"1"	20	"male"	"left"	"Other"	87	"t14_1_p2_2_mono.wav"	"la chenille"	"yes"	"yes"	"match"	"u"	"yes"	938	1718	780	1	"yes"	7.4489161025442	1557	7.350516171834	"correct"	3	2	2	2	1	1.75	4	"L"	"I"	"L"	"no"
"t14"	50	"50 t14"	1	"B2"	"2"	18	"female"	"right"	"Nadia"	155	"t14_1_p2_2_mono.wav"	"la chenille"	"yes"	"yes"	"mismatch"	"u"	"yes"	938	1132	194	5	"yes"	7.03174125876313	4214	8.34616759436413	"correct"	3	2	2	5	2	2.75	8	"L"	"I"	"L"	"no"
"t14"	36	"36 t14"	1	"C2"	"2"	21	"male"	"right"	"Other"	87	"t14_1_p2_2_mono.wav"	"la chenille"	"yes"	"yes"	"mismatch"	"u"	"yes"	938	1556	618	5	"yes"	7.34987370473834	1428	7.26403014289953	"correct"	3	2	3	4	2	2.75	-12	"L"	"I"	"L"	"no"
"t14"	46	"46 t14"	1	"A2"	"2"	22	"female"	"right"	"Ilse"	92	"t14_2_p3_2_mono.wav"	"la ch'nille"	"yes"	"yes"	"match"	"r"	"yes"	854	1416	562	5	"yes"	7.25559127425367	5209	8.55814317774519	"correct"	3	2	2	3	2	2.25	-2	"L"	"I"	"L"	"no"
"t14"	7	"7 t14"	1	"B2"	"1"	19	"female"	"right"	"Other"	155	"t14_1_p2_2_mono.wav"	"la chenille"	"yes"	"yes"	"match"	"u"	"yes"	938	1220	282	5	"yes"	7.1066061377273	1294	7.16549347506085	"correct"	3	1	1	1	1	1	-6	"L"	"I"	"L"	"no"
"t14"	21	"21 t14"	1	"B1"	"1"	18	"female"	"right"	"Other"	155	"t14_2_p3_2_mono.wav"	"la ch'nille"	"yes"	"yes"	"mismatch"	"r"	"yes"	854	918	64	5	"yes"	6.82219739062049	1532	7.33432935030054	"correct"	3	2	1	2	2	1.75	-5	"L"	"I"	"L"	"no"
"t14"	25	"25 t14"	1	"C1"	"1"	18	"female"	"right"	"Ferdy"	87	"t14_2_p3_2_mono.wav"	"la ch'nille"	"yes"	"yes"	"mismatch"	"r"	"yes"	854	1442	588	5	"yes"	7.27378631784489	1028	6.93537044601511	"correct"	6	4	4	4	3	3.75	-15	"L"	"I"	"L"	"no"
"t14"	12	"12 t14"	1	"C2"	"2"	20	"female"	"right"	"Ferdy"	87	"t14_1_p2_2_mono.wav"	"la chenille"	"yes"	"yes"	"mismatch"	"u"	"yes"	938	1350	412	5	"yes"	7.20785987143248	1433	7.26752542782817	"wrong"	2	2	2	1	1	1.5	-9	"L"	"I"	"L"	"no"
"t14"	10	"10 t14"	1	"C1"	"2"	19	"female"	"left"	"Other"	87	"t14_2_p3_2_mono.wav"	"la ch'nille"	"yes"	"yes"	"match"	"r"	"yes"	854	1144	290	1	"yes"	7.04228617193974	1022	6.92951677076365	"correct"	3	3	1	2	3	2.25	4	"L"	"I"	"L"	"no"
"t14"	20	"20 t14"	1	"A2"	"2"	21	"male"	"right"	"Other"	92	"t14_2_p3_2_mono.wav"	"la ch'nille"	"yes"	"yes"	"match"	"r"	"yes"	854	1277	423	5	"yes"	7.15226885603254	1070	6.97541392745595	"correct"	2	3	2	2	1	2	-2	"L"	"I"	"L"	"no"
"t14"	3	"3 t14"	1	"A2"	"1"	23	"female"	"left"	"Other"	92	"t14_2_p3_2_mono.wav"	"la ch'nille"	"yes"	"yes"	"mismatch"	"r"	"yes"	854	1690	836	1	"yes"	7.43248380791712	1238	7.12125245324454	"correct"	3.5	2	2	3	2	2.25	-3	"L"	"I"	"L"	"no"
"t14"	2	"2 t14"	1	"A1"	"2"	21	"female"	"right"	"Other"	92	"t14_1_p2_2_mono.wav"	"la chenille"	"yes"	"yes"	"mismatch"	"u"	"yes"	938	1301	363	5	"yes"	7.1708884785125	1375	7.22620901010067	"wrong"	3	2	2	3	2	2.25	-2	"L"	"I"	"L"	"no"
"t14"	47	"47 t14"	1	"B1"	"1"	23	"female"	"left"	"Ferdy"	155	"t14_2_p3_2_mono.wav"	"la ch'nille"	"yes"	"yes"	"mismatch"	"r"	"yes"	854	988	134	1	"yes"	6.89568269774787	3182	8.06526520889773	"correct"	3	1	1	1	1	1	-7	"L"	"I"	"L"	"no"
"t14"	14	"14 t14"	1	"D1"	"2"	19	"female"	"right"	"Other"	186	"t14_1_p2_2_mono.wav"	"la chenille"	"yes"	"yes"	"mismatch"	"u"	"yes"	938	1452	514	5	"yes"	7.28069719538474	1409	7.25063551189868	"correct"	3	2	1	2	2	1.75	1	"L"	"I"	"L"	"no"
"t14"	6	"6 t14"	1	"B1"	"2"	20	"female"	"right"	"Other"	155	"t14_2_p3_2_mono.wav"	"la ch'nille"	"yes"	"yes"	"match"	"r"	"yes"	854	1076	222	5	"yes"	6.98100574072173	1179	7.07242190053737	"correct"	3	1	2	2	1	1.5	-5	"L"	"I"	"L"	"no"
"t14"	51	"51 t14"	1	"B1"	"2"	18	"female"	"right"	"Nadia"	155	"t14_2_p3_2_mono.wav"	"la ch'nille"	"yes"	"yes"	"match"	"r"	"yes"	854	1303	449	5	"yes"	7.17242457712485	1658	7.41336733569524	"wrong"	6	4	4	4	4	4	-7	"L"	"I"	"L"	"no"
"t14"	29	"29 t14"	1	"D1"	"1"	24	"female"	"right"	"Nadia"	186	"t14_1_p2_2_mono.wav"	"la chenille"	"yes"	"yes"	"match"	"u"	"yes"	938	1630	692	5	"yes"	7.39633529380081	1375	7.22620901010067	"correct"	6	2	3	4	2	2.75	-9	"L"	"I"	"L"	"no"
"t14"	13	"13 t14"	1	"D1"	"1"	21	"male"	"right"	"Nadia"	186	"t14_1_p2_2_mono.wav"	"la chenille"	"yes"	"yes"	"match"	"u"	"yes"	938	1060	122	5	"yes"	6.96602418710611	2510	7.82803803212583	"correct"	3	3	3	4	2	3	3	"L"	"I"	"L"	"no"
"t14"	8	"8 t14"	1	"B2"	"2"	22	"female"	"right"	"Other"	155	"t14_1_p2_2_mono.wav"	"la chenille"	"yes"	"yes"	"mismatch"	"u"	"yes"	938	1243	305	5	"yes"	7.12528309151071	1480	7.29979736675816	"wrong"	3	2	2	2	1	1.75	-4	"L"	"I"	"L"	"no"
"t14"	30	"30 t14"	1	"D1"	"2"	18	"female"	"right"	"Nadia"	186	"t14_1_p2_2_mono.wav"	"la chenille"	"yes"	"yes"	"mismatch"	"u"	"yes"	938	1529	591	5	"yes"	7.33236920592906	1854	7.5251007461258	"wrong"	3	1	2	2	1	1.5	1	"L"	"I"	"L"	"no"
"t14"	1	"1 t14"	1	"A1"	"1"	22	"female"	"right"	"Other"	92	"t14_1_p2_2_mono.wav"	"la chenille"	"yes"	"yes"	"match"	"u"	"yes"	938	1283	345	5	"yes"	7.15695636461564	1128	7.028201432058	"correct"	3	1	2	2	1	1.5	-7	"L"	"I"	"L"	"no"
"t14"	42	"42 t14"	1	"D2"	"1"	20	"male"	"right"	"Ilse"	186	"t14_2_p3_2_mono.wav"	"la ch'nille"	"yes"	"yes"	"mismatch"	"r"	"yes"	854	1063	209	5	"yes"	6.96885037834195	2865	7.96032362914884	"correct"	3	2	2	3	1	2	5	"L"	"I"	"L"	"no"
"t14"	49	"49 t14"	1	"B2"	"1"	19	"female"	"left"	"Other"	155	"t14_1_p2_2_mono.wav"	"la chenille"	"yes"	"yes"	"match"	"u"	"yes"	938	1027	89	1	"yes"	6.93439720992856	1086	6.99025650049388	"correct"	3	1	1	2	2	1.5	-2	"L"	"I"	"L"	"no"
"t14"	27	"27 t14"	1	"C2"	"1"	22	"male"	"right"	"Other"	87	"t14_1_p2_2_mono.wav"	"la chenille"	"yes"	"yes"	"match"	"u"	"yes"	938	1172	234	5	"yes"	7.06646697013696	1202	7.09174211509515	"correct"	3	1	2	2	1	1.5	11	"L"	"I"	"L"	"no"
"t14"	22	"22 t14"	1	"B1"	"2"	22	"female"	"right"	"Ferdy"	155	"t14_2_p3_2_mono.wav"	"la ch'nille"	"yes"	"yes"	"match"	"r"	"yes"	854	1007	153	5	"yes"	6.91473089271856	2751	7.91971976092457	"correct"	3	2	2	2	2	2	-6	"L"	"I"	"L"	"no"
"t14"	43	"43 t14"	1	"A1"	"1"	18	"male"	"right"	"Ilse"	92	"t14_1_p2_2_mono.wav"	"la chenille"	"yes"	"yes"	"match"	"u"	"yes"	938	1086	148	5	"yes"	6.99025650049388	1450	7.27931883541462	"correct"	3	3	1	5	2	2.75	11	"L"	"I"	"L"	"no"
"t14"	33	"33 t14"	1	"C1"	"1"	18	"female"	"right"	"Ilse"	87	"t14_2_p3_2_mono.wav"	"la ch'nille"	"yes"	"yes"	"mismatch"	"r"	"yes"	854	1835	981	5	"yes"	7.51479976048867	2093	7.646353722446	"correct"	3	2	3	4	2	2.75	6	"L"	"I"	"L"	"no"
"t14"	9	"9 t14"	1	"C1"	"1"	18	"female"	"right"	"Other"	87	"t14_2_p3_2_mono.wav"	"la ch'nille"	"yes"	"yes"	"mismatch"	"r"	"yes"	854	1430	576	5	"yes"	7.26542972325395	1500	7.3132203870903	"correct"	3	4	3	4	2	3.25	-3	"L"	"I"	"L"	"no"
"t14"	17	"17 t14"	1	"A1"	"1"	18	"male"	"right"	"Other"	92	"t14_1_p2_2_mono.wav"	"la chenille"	"yes"	"yes"	"match"	"u"	"yes"	938	1385	447	5	"yes"	7.23345541862144	2522	7.83280751652486	"correct"	3	2	1	2	2	1.75	-5	"L"	"I"	"L"	"no"
"t15"	32	"32 t15"	1	"D2"	"2"	18	"male"	"right"	"Other"	104	"t15_1_p3_2_mono.wav"	"la pelouse"	"yes"	"yes"	"mismatch"	"u"	"yes"	1008	1826	818	5	"yes"	7.50988306115491	1880	7.539027055824	"correct"	3	1	1	1	1	1	-4	"L"	"L"	"L"	"no"
"t15"	41	"41 t15"	1	"D1"	"1"	19	"male"	"right"	"Ilse"	104	"t15_2_p2_2_mono.wav"	"la p'louse"	"yes"	"yes"	"mismatch"	"r"	"yes"	889	1075	186	5	"yes"	6.98007594056176	2047	7.62413058566129	"correct"	3	3	3	3	2	2.75	-6	"L"	"L"	"L"	"no"
"t15"	24	"24 t15"	1	"B2"	"2"	18	"female"	"right"	"Ferdy"	189	"t15_2_p2_2_mono.wav"	"la p'louse"	"yes"	"yes"	"match"	"r"	"yes"	889	1811	922	5	"yes"	7.50163445788341	2948	7.98888225330923	"wrong"	3	1	3	3	1	2	2	"L"	"L"	"L"	"no"
"t15"	35	"35 t15"	1	"C2"	"1"	20	"male"	"left"	"Other"	165	"t15_2_p2_2_mono.wav"	"la p'louse"	"yes"	"yes"	"mismatch"	"r"	"yes"	889	1423	534	1	"yes"	7.26052259808985	1629	7.39572160860205	"correct"	3	2	2	2	1	1.75	4	"L"	"L"	"L"	"no"
"t15"	36	"36 t15"	1	"C2"	"2"	21	"male"	"right"	"Other"	165	"t15_2_p2_2_mono.wav"	"la p'louse"	"yes"	"yes"	"match"	"r"	"yes"	889	953	64	5	"yes"	6.8596149036542	2103	7.6511201757027	"correct"	3	2	3	4	2	2.75	-12	"L"	"L"	"L"	"no"
"t15"	34	"34 t15"	1	"C1"	"2"	18	"female"	"right"	"Ilse"	165	"t15_1_p3_2_mono.wav"	"la pelouse"	"yes"	"yes"	"mismatch"	"u"	"yes"	1008	1095	87	5	"yes"	6.9985096422506	3181	8.06495089174914	"correct"	3	2	3	3	4	3	-5	"L"	"L"	"L"	"no"
"t15"	7	"7 t15"	1	"B2"	"1"	19	"female"	"right"	"Other"	189	"t15_2_p2_2_mono.wav"	"la p'louse"	"yes"	"yes"	"mismatch"	"r"	"yes"	889	1267	378	5	"yes"	7.14440718032114	1913	7.55642796944025	"correct"	3	1	1	1	1	1	-6	"L"	"L"	"L"	"no"
"t15"	2	"2 t15"	1	"A1"	"2"	21	"female"	"right"	"Other"	66	"t15_2_p2_2_mono.wav"	"la p'louse"	"yes"	"yes"	"match"	"r"	"yes"	889	1660	771	5	"yes"	7.41457288135059	1514	7.32251043399739	"correct"	3	2	2	3	2	2.25	-2	"L"	"L"	"L"	"no"
"t15"	15	"15 t15"	1	"D1"	"1"	20	"female"	"right"	"Other"	104	"t15_2_p2_2_mono.wav"	"la p'louse"	"yes"	"yes"	"mismatch"	"r"	"yes"	889	1121	232	5	"yes"	7.02197642307216	2982	8.00034949532468	"correct"	6	4	3	3	3	3.25	-4	"L"	"L"	"L"	"no"
"t15"	1	"1 t15"	1	"A1"	"1"	22	"female"	"right"	"Other"	66	"t15_2_p2_2_mono.wav"	"la p'louse"	"yes"	"yes"	"mismatch"	"r"	"yes"	889	1102	213	5	"yes"	7.00488198971286	1856	7.52617891334615	"correct"	3	1	2	2	1	1.5	-7	"L"	"L"	"L"	"no"
"t15"	10	"10 t15"	1	"C1"	"2"	19	"female"	"left"	"Other"	165	"t15_1_p3_2_mono.wav"	"la pelouse"	"yes"	"yes"	"mismatch"	"u"	"yes"	1008	1186	178	1	"yes"	7.07834157955767	1275	7.15070145759253	"correct"	3	3	1	2	3	2.25	4	"L"	"L"	"L"	"no"
"t15"	46	"46 t15"	1	"A2"	"2"	22	"female"	"right"	"Ilse"	66	"t15_1_p3_2_mono.wav"	"la pelouse"	"yes"	"yes"	"mismatch"	"u"	"yes"	1008	1667	659	5	"yes"	7.41878088275079	1883	7.54062152865715	"correct"	3	2	2	3	2	2.25	-2	"L"	"L"	"L"	"no"
"t15"	21	"21 t15"	1	"B1"	"1"	18	"female"	"right"	"Other"	189	"t15_1_p3_2_mono.wav"	"la pelouse"	"yes"	"yes"	"match"	"u"	"yes"	1008	1840	832	5	"yes"	7.51752085060303	1418	7.25700270709207	"correct"	3	2	1	2	2	1.75	-5	"L"	"L"	"L"	"no"
"t15"	25	"25 t15"	1	"C1"	"1"	18	"female"	"right"	"Ferdy"	165	"t15_1_p3_2_mono.wav"	"la pelouse"	"yes"	"yes"	"match"	"u"	"yes"	1008	1435	427	5	"yes"	7.26892012819372	1799	7.49498623395053	"correct"	6	4	4	4	3	3.75	-15	"L"	"L"	"L"	"no"
"t15"	47	"47 t15"	1	"B1"	"1"	23	"female"	"left"	"Ferdy"	189	"t15_1_p3_2_mono.wav"	"la pelouse"	"yes"	"yes"	"match"	"u"	"yes"	1008	1210	202	1	"yes"	7.09837563859079	4193	8.34117174717076	"correct"	3	1	1	1	1	1	-7	"L"	"L"	"L"	"no"
"t15"	13	"13 t15"	1	"D1"	"1"	21	"male"	"right"	"Nadia"	104	"t15_2_p2_2_mono.wav"	"la p'louse"	"yes"	"yes"	"mismatch"	"r"	"yes"	889	1280	391	5	"yes"	7.15461535691366	2781	7.93056585423396	"correct"	3	3	3	4	2	3	3	"L"	"L"	"L"	"no"
"t15"	14	"14 t15"	1	"D1"	"2"	19	"female"	"right"	"Other"	104	"t15_2_p2_2_mono.wav"	"la p'louse"	"yes"	"yes"	"match"	"r"	"yes"	889	1596	707	5	"yes"	7.37525577800975	1741	7.46221493976819	"correct"	3	2	1	2	2	1.75	1	"L"	"L"	"L"	"no"
"t15"	23	"23 t15"	1	"B2"	"1"	23	"female"	"right"	"Ferdy"	189	"t15_2_p2_2_mono.wav"	"la p'louse"	"yes"	"yes"	"mismatch"	"r"	"yes"	889	1057	168	5	"yes"	6.96318998587024	1425	7.26192709270275	"correct"	3	3	2	2	1	2	NA	"L"	"L"	"L"	"no"
"t15"	17	"17 t15"	1	"A1"	"1"	18	"male"	"right"	"Other"	66	"t15_2_p2_2_mono.wav"	"la p'louse"	"yes"	"yes"	"mismatch"	"r"	"yes"	889	1331	442	5	"yes"	7.19368581839511	2998	8.00570067866254	"correct"	3	2	1	2	2	1.75	-5	"L"	"L"	"L"	"no"
"t15"	30	"30 t15"	1	"D1"	"2"	18	"female"	"right"	"Nadia"	104	"t15_2_p2_2_mono.wav"	"la p'louse"	"yes"	"yes"	"match"	"r"	"yes"	889	1267	378	5	"yes"	7.14440718032114	3454	8.14728825870662	"correct"	3	1	2	2	1	1.5	1	"L"	"L"	"L"	"no"
"t15"	16	"16 t15"	1	"D2"	"2"	19	"female"	"right"	"Other"	104	"t15_1_p3_2_mono.wav"	"la pelouse"	"yes"	"yes"	"mismatch"	"u"	"yes"	1008	1178	170	5	"yes"	7.07157336421153	972	6.87935580446044	"correct"	5	1	2	1	1	1.25	1	"L"	"L"	"L"	"no"
"t15"	26	"26 t15"	1	"C1"	"2"	23	"female"	"right"	"Other"	165	"t15_1_p3_2_mono.wav"	"la pelouse"	"yes"	"yes"	"mismatch"	"u"	"yes"	1008	1733	725	5	"yes"	7.45760928971561	2425	7.79358680337158	"correct"	3	1	2	2	1	1.5	-3	"L"	"L"	"L"	"no"
"t15"	5	"5 t15"	1	"B1"	"1"	20	"female"	"right"	"Other"	189	"t15_1_p3_2_mono.wav"	"la pelouse"	"yes"	"yes"	"match"	"u"	"yes"	1008	1360	352	5	"yes"	7.2152399787301	1331	7.19368581839511	"correct"	2	2	2	2	3	2.25	-3	"L"	"L"	"L"	"no"
"t15"	18	"18 t15"	1	"A1"	"2"	21	"male"	"right"	"Other"	66	"t15_2_p2_2_mono.wav"	"la p'louse"	"yes"	"yes"	"match"	"r"	"yes"	889	2021	1132	5	"yes"	7.61134771740362	1030	6.93731408122368	"correct"	3	2	3	4	3	3	-3	"L"	"L"	"L"	"no"
"t15"	49	"49 t15"	1	"B2"	"1"	19	"female"	"left"	"Other"	189	"t15_2_p2_2_mono.wav"	"la p'louse"	"yes"	"yes"	"mismatch"	"r"	"yes"	889	1234	345	1	"yes"	7.11801620446533	1332	7.19443685110033	"correct"	3	1	1	2	2	1.5	-2	"L"	"L"	"L"	"no"
"t15"	20	"20 t15"	1	"A2"	"2"	21	"male"	"right"	"Other"	66	"t15_1_p3_2_mono.wav"	"la pelouse"	"yes"	"yes"	"mismatch"	"u"	"yes"	1008	1856	848	5	"yes"	7.52617891334615	1844	7.51969240411654	"correct"	2	3	2	2	1	2	-2	"L"	"L"	"L"	"no"
"t15"	28	"28 t15"	1	"C2"	"2"	22	"female"	"right"	"Ferdy"	165	"t15_2_p2_2_mono.wav"	"la p'louse"	"yes"	"yes"	"match"	"r"	"yes"	889	1196	307	5	"yes"	7.08673793451058	1903	7.55118686729615	"correct"	2	1	2	1	1	1.25	-8	"L"	"L"	"L"	"no"
"t15"	11	"11 t15"	1	"C2"	"1"	20	"female"	"right"	"Other"	165	"t15_2_p2_2_mono.wav"	"la p'louse"	"yes"	"yes"	"mismatch"	"r"	"yes"	889	1102	213	5	"yes"	7.00488198971286	1021	6.92853781816467	"correct"	3	1	2	2	1	1.5	7	"L"	"L"	"L"	"no"
"t15"	42	"42 t15"	1	"D2"	"1"	20	"male"	"right"	"Ilse"	104	"t15_1_p3_2_mono.wav"	"la pelouse"	"yes"	"yes"	"match"	"u"	"yes"	1008	2017	1009	5	"yes"	7.60936653795421	2366	7.76895604453833	"correct"	3	2	2	3	1	2	5	"L"	"L"	"L"	"no"
"t15"	27	"27 t15"	1	"C2"	"1"	22	"male"	"right"	"Other"	165	"t15_2_p2_2_mono.wav"	"la p'louse"	"yes"	"yes"	"mismatch"	"r"	"yes"	889	1150	261	5	"yes"	7.0475172213573	1286	7.15929190479756	"correct"	3	1	2	2	1	1.5	11	"L"	"L"	"L"	"no"
"t15"	45	"45 t15"	1	"A2"	"1"	19	"male"	"right"	"Ilse"	66	"t15_1_p3_2_mono.wav"	"la pelouse"	"yes"	"yes"	"match"	"u"	"yes"	1008	2428	1420	5	"yes"	7.79482315217939	1408	7.24992553671799	"correct"	3	1	2	1	1	1.25	-6	"L"	"L"	"L"	"no"
"t15"	9	"9 t15"	1	"C1"	"1"	18	"female"	"right"	"Other"	165	"t15_1_p3_2_mono.wav"	"la pelouse"	"yes"	"yes"	"match"	"u"	"yes"	1008	1291	283	5	"yes"	7.16317239084664	3156	8.05706068196577	"correct"	3	4	3	4	2	3.25	-3	"L"	"L"	"L"	"no"
"t15"	51	"51 t15"	1	"B1"	"2"	18	"female"	"right"	"Nadia"	189	"t15_1_p3_2_mono.wav"	"la pelouse"	"yes"	"yes"	"mismatch"	"u"	"yes"	1008	2111	1103	5	"yes"	7.65491704784832	1379	7.2291138777933	"correct"	6	4	4	4	4	4	-7	"L"	"L"	"L"	"no"
"t15"	33	"33 t15"	1	"C1"	"1"	18	"female"	"right"	"Ilse"	165	"t15_1_p3_2_mono.wav"	"la pelouse"	"yes"	"yes"	"match"	"u"	"yes"	1008	1292	284	5	"yes"	7.16394668434255	2391	7.77946696745832	"correct"	3	2	3	4	2	2.75	6	"L"	"L"	"L"	"no"
"t15"	50	"50 t15"	1	"B2"	"2"	18	"female"	"right"	"Nadia"	189	"t15_2_p2_2_mono.wav"	"la p'louse"	"yes"	"yes"	"match"	"r"	"yes"	889	1383	494	5	"yes"	7.23201033166476	2059	7.62997570702779	"correct"	3	2	2	5	2	2.75	8	"L"	"L"	"L"	"no"
"t15"	12	"12 t15"	1	"C2"	"2"	20	"female"	"right"	"Ferdy"	165	"t15_2_p2_2_mono.wav"	"la p'louse"	"yes"	"yes"	"match"	"r"	"yes"	889	1158	269	5	"yes"	7.05444965813294	2032	7.61677580869837	"correct"	2	2	2	1	1	1.5	-9	"L"	"L"	"L"	"no"
"t15"	22	"22 t15"	1	"B1"	"2"	22	"female"	"right"	"Ferdy"	189	"t15_1_p3_2_mono.wav"	"la pelouse"	"yes"	"yes"	"mismatch"	"u"	"yes"	1008	833	-175	5	"yes"	6.72503364216684	872	6.77078942390898	"correct"	3	2	2	2	2	2	-6	"L"	"L"	"L"	"no"
"t15"	8	"8 t15"	1	"B2"	"2"	22	"female"	"right"	"Other"	189	"t15_2_p2_2_mono.wav"	"la p'louse"	"yes"	"yes"	"match"	"r"	"yes"	889	1500	611	5	"yes"	7.3132203870903	1760	7.4730690880322	"correct"	3	2	2	2	1	1.75	-4	"L"	"L"	"L"	"no"
"t15"	3	"3 t15"	1	"A2"	"1"	23	"female"	"left"	"Other"	66	"t15_1_p3_2_mono.wav"	"la pelouse"	"yes"	"yes"	"match"	"u"	"yes"	1008	1529	521	1	"yes"	7.33236920592906	3068	8.02878116248715	"correct"	3.5	2	2	3	2	2.25	-3	"L"	"L"	"L"	"no"
"t15"	43	"43 t15"	1	"A1"	"1"	18	"male"	"right"	"Ilse"	66	"t15_2_p2_2_mono.wav"	"la p'louse"	"yes"	"yes"	"mismatch"	"r"	"yes"	889	1104	215	5	"yes"	7.00669522683704	1164	7.05961762829138	"wrong"	3	3	1	5	2	2.75	11	"L"	"L"	"L"	"no"
"t15"	29	"29 t15"	1	"D1"	"1"	24	"female"	"right"	"Nadia"	104	"t15_2_p2_2_mono.wav"	"la p'louse"	"yes"	"yes"	"mismatch"	"r"	"yes"	889	2261	1372	5	"yes"	7.72356247227797	1813	7.50273821075485	"correct"	6	2	3	4	2	2.75	-9	"L"	"L"	"L"	"no"
"t16"	35	"35 t16"	1	"C2"	"1"	20	"male"	"left"	"Other"	176	"t16_1_p1_2_mono.wav"	"la peluche"	"yes"	"yes"	"match"	"u"	"yes"	846	1383	537	1	"yes"	7.23201033166476	1146	7.04403289727469	"correct"	3	2	2	2	1	1.75	4	"L"	"L"	"L"	"no"
"t16"	2	"2 t16"	1	"A1"	"2"	21	"female"	"right"	"Other"	83	"t16_1_p1_2_mono.wav"	"la peluche"	"yes"	"yes"	"mismatch"	"u"	"yes"	846	1169	323	5	"yes"	7.06390396147207	1528	7.33171496972647	"correct"	3	2	2	3	2	2.25	-2	"L"	"L"	"L"	"no"
"t16"	25	"25 t16"	1	"C1"	"1"	18	"female"	"right"	"Ferdy"	176	"t16_2_p2_2_mono.wav"	"la p'luche"	"yes"	"yes"	"mismatch"	"r"	"yes"	805	1152	347	5	"yes"	7.04925484125584	2185	7.68937110752969	"correct"	6	4	4	4	3	3.75	-15	"L"	"L"	"L"	"no"
"t16"	32	"32 t16"	1	"D2"	"2"	18	"male"	"right"	"Other"	98	"t16_1_p1_2_mono.wav"	"la peluche"	"yes"	"yes"	"mismatch"	"u"	"yes"	846	1808	962	5	"yes"	7.49997654095212	3417	8.13651825211529	"correct"	3	1	1	1	1	1	-4	"L"	"L"	"L"	"no"
"t16"	34	"34 t16"	1	"C1"	"2"	18	"female"	"right"	"Ilse"	176	"t16_2_p2_2_mono.wav"	"la p'luche"	"yes"	"yes"	"match"	"r"	"yes"	805	978	173	5	"yes"	6.88550967003482	1163	7.05875815251866	"correct"	3	2	3	3	4	3	-5	"L"	"L"	"L"	"no"
"t16"	1	"1 t16"	1	"A1"	"1"	22	"female"	"right"	"Other"	83	"t16_1_p1_2_mono.wav"	"la peluche"	"yes"	"yes"	"match"	"u"	"yes"	846	1115	269	5	"yes"	7.01660968389422	1520	7.32646561384032	"correct"	3	1	2	2	1	1.5	-7	"L"	"L"	"L"	"no"
"t16"	42	"42 t16"	1	"D2"	"1"	20	"male"	"right"	"Ilse"	98	"t16_1_p1_2_mono.wav"	"la peluche"	"yes"	"yes"	"match"	"u"	"yes"	846	1762	916	5	"yes"	7.47420480649612	2194	7.69348164083518	"correct"	3	2	2	3	1	2	5	"L"	"L"	"L"	"no"
"t16"	9	"9 t16"	1	"C1"	"1"	18	"female"	"right"	"Other"	176	"t16_2_p2_2_mono.wav"	"la p'luche"	"yes"	"yes"	"mismatch"	"r"	"yes"	805	1404	599	5	"yes"	7.24708058458576	1725	7.45298232946546	"correct"	3	4	3	4	2	3.25	-3	"L"	"L"	"L"	"no"
"t16"	30	"30 t16"	1	"D1"	"2"	18	"female"	"right"	"Nadia"	98	"t16_2_p2_2_mono.wav"	"la p'luche"	"yes"	"yes"	"match"	"r"	"yes"	805	1463	658	5	"yes"	7.28824440102012	2687	7.89618060861549	"correct"	3	1	2	2	1	1.5	1	"L"	"L"	"L"	"no"
"t16"	47	"47 t16"	1	"B1"	"1"	23	"female"	"left"	"Ferdy"	35	"t16_1_p1_2_mono.wav"	"la peluche"	"yes"	"yes"	"match"	"u"	"yes"	846	2391	1545	1	"yes"	7.77946696745832	1204	7.09340462586877	"correct"	3	1	1	1	1	1	-7	"L"	"L"	"L"	"no"
