Subject	SessionTime	Block	Correct	Response.ACC	Response.RESP	Response.RT	Stimulus
1	15:16:26	1	la{SPACE}bedaine{ENTER}	0	le{SPACE}nenet{ENTER}	15423	de bierbuik
1	15:16:26	2	la{SPACE}peluche{ENTER}	0	la{SPACE}pluiche{ENTER}	15079	het pluisje
1	15:16:26	3	le{SPACE}recul{ENTER}	0	le{SPACE}requile{ENTER}	3052	de teruggang
1	15:16:26	4	la{SPACE}pelouse{ENTER}	0	la{SPACE}puluiche{ENTER}	6047	het gazon
1	15:16:26	5	le{SPACE}fenouil{ENTER}	0	le{SPACE}{ENTER}	22024	de venkel
1	15:16:26	6	la{SPACE}levrette{ENTER}	0	la{SPACE}schnee{ENTER}	5093	de windhond
1	15:16:26	7	le{SPACE}reflet{ENTER}	0	la{SPACE}reflex{ENTER}	22803	de reflex
1	15:16:26	8	le{SPACE}requin{ENTER}	0	la{SPACE}{.}{.}{ENTER}	18135	de haai
1	15:16:26	9	la{SPACE}semoule{ENTER}	0	la{SPACE}smoeul{ENTER}	6448	de griesmeel
1	15:16:26	10	la{SPACE}chenille{ENTER}	0	la{SPACE}schnieu{ENTER}	37665	de rups
1	15:16:26	11	la{SPACE}menotte{ENTER}	0	la{SPACE}minot{ENTER}	6456	het handje
1	15:16:26	12	le{SPACE}rebond{ENTER}	0	le{SPACE}dibon{ENTER}	10923	de terugstoot
1	15:16:26	13	le{SPACE}chenil{ENTER}	0	la{SPACE}cheille{ENTER}	35063	de kennel
1	15:16:26	14	la{SPACE}reliure{ENTER}	0	le{SPACE}bidot{ENTER}	8455	de boekband
1	15:16:26	15	le{SPACE}recel{ENTER}	0	le{SPACE}{.}{.}{.}{ENTER}	7095	de heling
1	15:16:26	16	le{SPACE}remous{ENTER}	0	la{SPACE}suching{ENTER}	35179	de zuiging
1	15:16:26	17	le{SPACE}geni{SHIFT}evre{ENTER}	0	la{SPACE}jeniel{ENTER}	4141	de jeneverbes
1	15:16:26	18	le{SPACE}sevrage{ENTER}	0	recule{ENTER}	10301	het onttrekken
1	15:16:26	19	la{SPACE}semelle{ENTER}	0	la{SPACE}schmell{ENTER}	13777	de schoenzool
1	15:16:26	20	la{SPACE}secousse{ENTER}	0	{.}{.}{ENTER}	4833	de ruk
1	15:16:26	21	le{SPACE}faisan{ENTER}	0	le{SPACE}fezant{ENTER}	3418	de fazant
1	15:16:26	22	la{SPACE}belette{ENTER}	0	la{SPACE}blet{ENTER}	17405	de wezel
1	15:16:26	23	le{SPACE}meneau{ENTER}	0	le{SPACE}{.}{.}{ENTER}	6545	de paal
1	15:16:26	24	le{SPACE}renard{ENTER}	0	le{SPACE}reinard{ENTER}	3226	de vos
10	11:10:25	1	la{SPACE}bedaine{ENTER}	0	le{SPACE}benait{ENTER}	13155	de bierbuik
10	11:10:25	2	la{SPACE}peluche{ENTER}	1	la{SPACE}peluche{ENTER}	3562	het pluisje
10	11:10:25	3	le{SPACE}recul{ENTER}	0	recul{ENTER}	1227	de teruggang
10	11:10:25	4	la{SPACE}pelouse{ENTER}	0	le{SPACE}pelousse{ENTER}	46131	het gazon
10	11:10:25	5	le{SPACE}fenouil{ENTER}	0	le{SPACE}fenouille{ENTER}	9296	de venkel
10	11:10:25	6	la{SPACE}levrette{ENTER}	0	le{SPACE}levrette{ENTER}	2571	de windhond
10	11:10:25	7	le{SPACE}reflet{ENTER}	1	le{SPACE}reflet{ENTER}	1611	de reflex
10	11:10:25	8	le{SPACE}requin{ENTER}	0	le{SPACE}renuit{ENTER}	2696	de haai
10	11:10:25	9	la{SPACE}semoule{ENTER}	0	la{SPACE}semouille{ENTER}	9134	de griesmeel
10	11:10:25	10	la{SPACE}chenille{ENTER}	1	la{SPACE}chenille{ENTER}	2871	de rups
10	11:10:25	11	la{SPACE}menotte{ENTER}	0	le{SPACE}menoit{ENTER}	2205	het handje
10	11:10:25	12	le{SPACE}rebond{ENTER}	1	le{SPACE}rebond{ENTER}	1393	de terugstoot
10	11:10:25	13	le{SPACE}chenil{ENTER}	1	le{SPACE}chenil{ENTER}	1633	de kennel
10	11:10:25	14	la{SPACE}reliure{ENTER}	0	le{SPACE}reliure{ENTER}	2778	de boekband
10	11:10:25	15	le{SPACE}recel{ENTER}	1	le{SPACE}recel{ENTER}	28227	de heling
10	11:10:25	16	le{SPACE}remous{ENTER}	0	le{SPACE}semain{ENTER}	33297	de zuiging
10	11:10:25	17	le{SPACE}geni{SHIFT}evre{ENTER}	1	le{SPACE}geni{SHIFT}Evre{ENTER}	8314	de jeneverbes
10	11:10:25	18	le{SPACE}sevrage{ENTER}	0	le{SPACE}senaire{ENTER}	29133	het onttrekken
10	11:10:25	19	la{SPACE}semelle{ENTER}	0	le{SPACE}semelle{ENTER}	1398	de schoenzool
10	11:10:25	20	la{SPACE}secousse{ENTER}	0	le{SPACE}secousse{ENTER}	1933	de ruk
10	11:10:25	21	le{SPACE}faisan{ENTER}	0	le{SPACE}fazant{ENTER}	2341	de fazant
10	11:10:25	22	la{SPACE}belette{ENTER}	0	le{SPACE}manait{ENTER}	26146	de wezel
10	11:10:25	23	le{SPACE}meneau{ENTER}	0	le{SPACE}menait{ENTER}	10893	de paal
10	11:10:25	24	le{SPACE}renard{ENTER}	1	le{SPACE}renard{ENTER}	1599	de vos
11	12:14:04	1	la{SPACE}bedaine{ENTER}	0	le{SPACE}benet{ENTER}	13897	de bierbuik
11	12:14:04	2	la{SPACE}peluche{ENTER}	0	la{SPACE}pluche{ENTER}	7429	het pluisje
11	12:14:04	3	le{SPACE}recul{ENTER}	0	le{SPACE}ruch{SHIFT}{SHIFT}{SHIFT}Ere{ENTER}	16446	de teruggang
11	12:14:04	4	la{SPACE}pelouse{ENTER}	0	le{SPACE}{ENTER}	25975	het gazon
11	12:14:04	5	le{SPACE}fenouil{ENTER}	0	{SPACE}venouille{ENTER}	2155	de venkel
11	12:14:04	6	la{SPACE}levrette{ENTER}	0	la{SPACE}b{ENTER}	22298	de windhond
11	12:14:04	7	le{SPACE}reflet{ENTER}	0	le{SPACE}reflex{ENTER}	4647	de reflex
11	12:14:04	8	le{SPACE}requin{ENTER}	0	la{SPACE}burcain{ENTER}	5011	de haai
11	12:14:04	9	la{SPACE}semoule{ENTER}	0	le{SPACE}s{ENTER}	13460	de griesmeel
11	12:14:04	10	la{SPACE}chenille{ENTER}	0	la{SPACE}schnie{ENTER}	6942	de rups
11	12:14:04	11	la{SPACE}menotte{ENTER}	0	lemnot{ENTER}	10223	het handje
11	12:14:04	12	le{SPACE}rebond{ENTER}	0	le{SPACE}rucule{ENTER}	10751	de terugstoot
11	12:14:04	13	le{SPACE}chenil{ENTER}	0	la{SPACE}schniel{ENTER}	5450	de kennel
11	12:14:04	14	la{SPACE}reliure{ENTER}	0	la{SPACE}lieur{ENTER}	4590	de boekband
11	12:14:04	15	le{SPACE}recel{ENTER}	0	la{ENTER}	5925	de heling
11	12:14:04	16	le{SPACE}remous{ENTER}	0	la{SPACE}burdait{ENTER}	4364	de zuiging
11	12:14:04	17	le{SPACE}geni{SHIFT}evre{ENTER}	0	la{SPACE}jen{SHIFT}Evre{ENTER}	7385	de jeneverbes
11	12:14:04	18	le{SPACE}sevrage{ENTER}	0	le{SPACE}rucule{ENTER}	8670	het onttrekken
11	12:14:04	19	la{SPACE}semelle{ENTER}	0	la{SPACE}schem{SHIFT}Ele{ENTER}	6452	de schoenzool
11	12:14:04	20	la{SPACE}secousse{ENTER}	0	la{SPACE}secouse{ENTER}	7232	de ruk
11	12:14:04	21	le{SPACE}faisan{ENTER}	0	le{SPACE}fazant{ENTER}	2792	de fazant
11	12:14:04	22	la{SPACE}belette{ENTER}	0	{SPACE}le{SPACE}burdout{ENTER}	7553	de wezel
11	12:14:04	23	le{SPACE}meneau{ENTER}	0	la{SPACE}menut{ENTER}	7186	de paal
11	12:14:04	24	le{SPACE}renard{ENTER}	1	le{SPACE}renard{ENTER}	3952	de vos
12	10:48:10	1	la{SPACE}bedaine{ENTER}	0	le{SPACE}boire{ENTER}	16301	de bierbuik
12	10:48:10	2	la{SPACE}peluche{ENTER}	0	le{SPACE}pluche{LEFTARROW}{LEFTARROW}{ENTER}	10479	het pluisje
12	10:48:10	3	le{SPACE}recul{ENTER}	0	le{SPACE}rebond{ENTER}	8898	de teruggang
12	10:48:10	4	la{SPACE}pelouse{ENTER}	0	{ENTER}	1603	het gazon
12	10:48:10	5	le{SPACE}fenouil{ENTER}	0	{ENTER}	3172	de venkel
12	10:48:10	6	la{SPACE}levrette{ENTER}	0	{ENTER}	11721	de windhond
12	10:48:10	7	le{SPACE}reflet{ENTER}	1	le{SPACE}reflet{ENTER}	2905	de reflex
12	10:48:10	8	le{SPACE}requin{ENTER}	0	le{SPACE}requird{ENTER}	5940	de haai
12	10:48:10	9	la{SPACE}semoule{ENTER}	0	le{SPACE}semelle{ENTER}	4207	de griesmeel
12	10:48:10	10	la{SPACE}chenille{ENTER}	0	le{SPACE}chenille{ENTER}	4378	de rups
12	10:48:10	11	la{SPACE}menotte{ENTER}	0	{ENTER}	2743	het handje
12	10:48:10	12	le{SPACE}rebond{ENTER}	1	le{SPACE}rebond{ENTER}	3382	de terugstoot
12	10:48:10	13	le{SPACE}chenil{ENTER}	0	le{SPACE}chenille{ENTER}	10543	de kennel
12	10:48:10	14	la{SPACE}reliure{ENTER}	0	{ENTER}	2582	de boekband
12	10:48:10	15	le{SPACE}recel{ENTER}	0	{ENTER}	8497	de heling
12	10:48:10	16	le{SPACE}remous{ENTER}	0	le{SPACE}remour{ENTER}	5555	de zuiging
12	10:48:10	17	le{SPACE}geni{SHIFT}evre{ENTER}	0	{ENTER}	3142	de jeneverbes
12	10:48:10	18	le{SPACE}sevrage{ENTER}	0	le{SPACE}regard{ENTER}	14553	het onttrekken
12	10:48:10	19	la{SPACE}semelle{ENTER}	0	{ENTER}	5371	de schoenzool
12	10:48:10	20	la{SPACE}secousse{ENTER}	0	le{SPACE}savragge{ENTER}	3377	de ruk
12	10:48:10	21	le{SPACE}faisan{ENTER}	0	le{SPACE}fasant{ENTER}	5116	de fazant
12	10:48:10	22	la{SPACE}belette{ENTER}	0	{ENTER}	996	de wezel
12	10:48:10	23	le{SPACE}meneau{ENTER}	0	{ENTER}	10200	de paal
12	10:48:10	24	le{SPACE}renard{ENTER}	0	{ENTER}	4212	de vos
13	9:51:34	1	la{SPACE}bedaine{ENTER}	0	{SHIFT}Le{SPACE}buli{SHIFT}Ere{ENTER}	11941	de bierbuik
13	9:51:34	2	la{SPACE}peluche{ENTER}	0	{SHIFT}la{SPACE}{SHIFT}plouche{ENTER}	20783	het pluisje
13	9:51:34	3	le{SPACE}recul{ENTER}	0	la{SPACE}suvr{SHIFT}Ete{ENTER}	4821	de teruggang
13	9:51:34	4	la{SPACE}pelouse{ENTER}	0	la{SPACE}ploug{SHIFT}E{ENTER}	15236	het gazon
13	9:51:34	5	le{SPACE}fenouil{ENTER}	0	le{SPACE}{ENTER}	8152	de venkel
13	9:51:34	6	la{SPACE}levrette{ENTER}	0	le{SPACE}leuvr{SHIFT}age{ENTER}	14248	de windhond
13	9:51:34	7	le{SPACE}reflet{ENTER}	0	l{SHIFT}{SHIFT}{LEFTARROW}e{SPACE}reflex{ENTER}	16414	de reflex
13	9:51:34	8	le{SPACE}requin{ENTER}	0	le{SPACE}r{SHIFT}Ec{SHIFT}{ENTER}	19773	de haai
13	9:51:34	9	la{SPACE}semoule{ENTER}	0	la{SPACE}semouille{ENTER}	7296	de griesmeel
13	9:51:34	10	la{SPACE}chenille{ENTER}	0	la{SPACE}chemille{ENTER}	6680	de rups
13	9:51:34	11	la{SPACE}menotte{ENTER}	0	le{SPACE}main{SHIFT}Ot{ENTER}	9383	het handje
13	9:51:34	12	le{SPACE}rebond{ENTER}	0	le{SPACE}r{SHIFT}Ebound{ENTER}	8464	de terugstoot
13	9:51:34	13	le{SPACE}chenil{ENTER}	0	le{SPACE}chanin{ENTER}	19415	de kennel
13	9:51:34	14	la{SPACE}reliure{ENTER}	0	l{'}arbiture{ENTER}	9023	de boekband
13	9:51:34	15	le{SPACE}recel{ENTER}	0	le{ENTER}	11720	de heling
13	9:51:34	16	le{SPACE}remous{ENTER}	0	le{SPACE}r{SHIFT}Ecu{ENTER}	14358	de zuiging
13	9:51:34	17	le{SPACE}geni{SHIFT}evre{ENTER}	0	le{SPACE}genevi{SHIFT}Ere{ENTER}	11049	de jeneverbes
13	9:51:34	18	le{SPACE}sevrage{ENTER}	0	le{SPACE}suffrage{ENTER}	4337	het onttrekken
13	9:51:34	19	la{SPACE}semelle{ENTER}	0	la{SPACE}shouse{ENTER}	27281	de schoenzool
13	9:51:34	20	la{SPACE}secousse{ENTER}	0	le{SPACE}r{SHIFT}Ecu{ENTER}	9412	de ruk
13	9:51:34	21	le{SPACE}faisan{ENTER}	0	la{SPACE}fazante{ENTER}	3945	de fazant
13	9:51:34	22	la{SPACE}belette{ENTER}	0	le{SPACE}bullet{ENTER}	3571	de wezel
13	9:51:34	23	le{SPACE}meneau{ENTER}	0	le{SPACE}{SHIFT}m{SHIFT}En{SHIFT}U{ENTER}	7642	de paal
13	9:51:34	24	le{SPACE}renard{ENTER}	0	le{SPACE}{ENTER}	15348	de vos
14	14:46:49	1	la{SPACE}bedaine{ENTER}	0	le{SPACE}bedaine{ENTER}	6872	de bierbuik
14	14:46:49	2	la{SPACE}peluche{ENTER}	0	{SPACE}le{SPACE}pluche{ENTER}	11033	het pluisje
14	14:46:49	3	le{SPACE}recul{ENTER}	1	le{SPACE}recul{ENTER}	3057	de teruggang
14	14:46:49	4	la{SPACE}pelouse{ENTER}	0	x{ENTER}	7754	het gazon
14	14:46:49	5	le{SPACE}fenouil{ENTER}	0	le{SPACE}fenouille{ENTER}	6375	de venkel
14	14:46:49	6	la{SPACE}levrette{ENTER}	0	le{SPACE}levrette{ENTER}	8332	de windhond
14	14:46:49	7	le{SPACE}reflet{ENTER}	0	le{SPACE}reflect{ENTER}	12510	de reflex
14	14:46:49	8	le{SPACE}requin{ENTER}	1	le{SPACE}requin{ENTER}	5208	de haai
14	14:46:49	9	la{SPACE}semoule{ENTER}	0	le{SPACE}semoulle{ENTER}	3457	de griesmeel
14	14:46:49	10	la{SPACE}chenille{ENTER}	0	le{SPACE}schmelle{ENTER}	5786	de rups
14	14:46:49	11	la{SPACE}menotte{ENTER}	0	la{SPACE}manotte{ENTER}	5124	het handje
14	14:46:49	12	le{SPACE}rebond{ENTER}	1	le{SPACE}rebond{ENTER}	4269	de terugstoot
14	14:46:49	13	le{SPACE}chenil{ENTER}	0	x{ENTER}	2109	de kennel
14	14:46:49	14	la{SPACE}reliure{ENTER}	0	la{SPACE}reviale{ENTER}	4944	de boekband
14	14:46:49	15	le{SPACE}recel{ENTER}	1	le{SPACE}recel{ENTER}	4039	de heling
14	14:46:49	16	le{SPACE}remous{ENTER}	0	le{SPACE}rouvre{ENTER}	8768	de zuiging
14	14:46:49	17	le{SPACE}geni{SHIFT}evre{ENTER}	0	le{SPACE}genievre{ENTER}	5513	de jeneverbes
14	14:46:49	18	le{SPACE}sevrage{ENTER}	0	se{SPACE}semontre{ENTER}	3821	het onttrekken
14	14:46:49	19	la{SPACE}semelle{ENTER}	1	la{SPACE}semelle{ENTER}	4954	de schoenzool
14	14:46:49	20	la{SPACE}secousse{ENTER}	0	la{SPACE}secoulle{ENTER}	6266	de ruk
14	14:46:49	21	le{SPACE}faisan{ENTER}	0	la{SPACE}fassaint{ENTER}	8511	de fazant
14	14:46:49	22	la{SPACE}belette{ENTER}	1	la{SPACE}belette{ENTER}	4242	de wezel
14	14:46:49	23	le{SPACE}meneau{ENTER}	0	{LEFTARROW}{LEFTARROW}{LEFTARROW}{LEFTARROW}{LEFTARROW}le{SPACE}moneau{ENTER}	9849	de paal
14	14:46:49	24	le{SPACE}renard{ENTER}	1	le{SPACE}renard{ENTER}	6745	de vos
15	12:25:26	1	la{SPACE}bedaine{ENTER}	0	le{SPACE}biere{ENTER}	13338	de bierbuik
15	12:25:26	2	la{SPACE}peluche{ENTER}	0	le{SPACE}pluissant{ENTER}	7717	het pluisje
15	12:25:26	3	le{SPACE}recul{ENTER}	0	le{SPACE}recourt{ENTER}	7684	de teruggang
15	12:25:26	4	la{SPACE}pelouse{ENTER}	0	le{SPACE}chemain{ENTER}	5137	het gazon
15	12:25:26	5	le{SPACE}fenouil{ENTER}	0	le{SPACE}fenel{ENTER}	10548	de venkel
15	12:25:26	6	la{SPACE}levrette{ENTER}	0	le{SPACE}chain{ENTER}	14024	de windhond
15	12:25:26	7	le{SPACE}reflet{ENTER}	0	le{SPACE}reflex{ENTER}	3345	de reflex
15	12:25:26	8	le{SPACE}requin{ENTER}	0	le{SPACE}chacon{ENTER}	6665	de haai
15	12:25:26	9	la{SPACE}semoule{ENTER}	0	la{SPACE}griese{ENTER}	12104	de griesmeel
15	12:25:26	10	la{SPACE}chenille{ENTER}	0	le{SPACE}chenie{ENTER}	6061	de rups
15	12:25:26	11	la{SPACE}menotte{ENTER}	0	le{SPACE}hand{ENTER}	28678	het handje
15	12:25:26	12	le{SPACE}rebond{ENTER}	0	la{SPACE}retard{ENTER}	17892	de terugstoot
15	12:25:26	13	le{SPACE}chenil{ENTER}	0	le{SPACE}chennel{ENTER}	16502	de kennel
15	12:25:26	14	la{SPACE}reliure{ENTER}	0	la{SPACE}lire{ENTER}	18027	de boekband
15	12:25:26	15	le{SPACE}recel{ENTER}	0	le{SPACE}spil{ENTER}	20924	de heling
15	12:25:26	16	le{SPACE}remous{ENTER}	0	le{SPACE}re{ENTER}	19125	de zuiging
15	12:25:26	17	le{SPACE}geni{SHIFT}evre{ENTER}	0	la{SPACE}jenever{ENTER}	35016	de jeneverbes
15	12:25:26	18	le{SPACE}sevrage{ENTER}	0	la{SPACE}chaine{ENTER}	5441	het onttrekken
15	12:25:26	19	la{SPACE}semelle{ENTER}	0	le{SPACE}smell{SPACE}foutage{ENTER}	16223	de schoenzool
15	12:25:26	20	la{SPACE}secousse{ENTER}	0	le{SPACE}chain{ENTER}	2906	de ruk
15	12:25:26	21	le{SPACE}faisan{ENTER}	0	le{SPACE}fazant{ENTER}	1848	de fazant
15	12:25:26	22	la{SPACE}belette{ENTER}	0	le{SPACE}smere{ENTER}	10901	de wezel
15	12:25:26	23	le{SPACE}meneau{ENTER}	0	le{SPACE}smere{ENTER}	29402	de paal
15	12:25:26	24	le{SPACE}renard{ENTER}	0	le{SPACE}reinaert{ENTER}	4134	de vos
16	12:14:50	1	la{SPACE}bedaine{ENTER}	0	la{SPACE}badain{ENTER}	6575	de bierbuik
16	12:14:50	2	la{SPACE}peluche{ENTER}	0	la{SPACE}pelouse{ENTER}	6427	het pluisje
16	12:14:50	3	le{SPACE}recul{ENTER}	0	le{SPACE}recel{ENTER}	17725	de teruggang
16	12:14:50	4	la{SPACE}pelouse{ENTER}	0	le{SPACE}melote{ENTER}	34032	het gazon
16	12:14:50	5	le{SPACE}fenouil{ENTER}	0	le{SPACE}selousse{ENTER}	6206	de venkel
16	12:14:50	6	la{SPACE}levrette{ENTER}	0	la{SPACE}fenime{ENTER}	25190	de windhond
16	12:14:50	7	le{SPACE}reflet{ENTER}	1	le{SPACE}reflet{ENTER}	8341	de reflex
16	12:14:50	8	le{SPACE}requin{ENTER}	1	le{SPACE}requin{ENTER}	4238	de haai
16	12:14:50	9	la{SPACE}semoule{ENTER}	0	le{SPACE}dinou{ENTER}	21392	de griesmeel
16	12:14:50	10	la{SPACE}chenille{ENTER}	0	le{SPACE}chenille{ENTER}	5673	de rups
16	12:14:50	11	la{SPACE}menotte{ENTER}	0	la{SPACE}monure{ENTER}	8049	het handje
16	12:14:50	12	le{SPACE}rebond{ENTER}	0	la{SPACE}severe{ENTER}	7526	de terugstoot
16	12:14:50	13	le{SPACE}chenil{ENTER}	1	le{SPACE}chenil{ENTER}	6568	de kennel
16	12:14:50	14	la{SPACE}reliure{ENTER}	0	le{SPACE}maison{ENTER}	5966	de boekband
16	12:14:50	15	le{SPACE}recel{ENTER}	0	la{SPACE}requelle{ENTER}	8824	de heling
16	12:14:50	16	le{SPACE}remous{ENTER}	0	la{SPACE}fenille{ENTER}	8784	de zuiging
16	12:14:50	17	le{SPACE}geni{SHIFT}evre{ENTER}	0	le{SPACE}bedaint{ENTER}	14778	de jeneverbes
16	12:14:50	18	le{SPACE}sevrage{ENTER}	0	le{SPACE}veloure{ENTER}	12144	het onttrekken
16	12:14:50	19	la{SPACE}semelle{ENTER}	0	le{SPACE}semouse{ENTER}	4788	de schoenzool
16	12:14:50	20	la{SPACE}secousse{ENTER}	0	le{SPACE}sessouse{ENTER}	9080	de ruk
16	12:14:50	21	le{SPACE}faisan{ENTER}	0	le{SPACE}fasont{ENTER}	5104	de fazant
16	12:14:50	22	la{SPACE}belette{ENTER}	0	le{SPACE}redant{ENTER}	3608	de wezel
16	12:14:50	23	le{SPACE}meneau{ENTER}	0	le{SPACE}naison{ENTER}	21411	de paal
16	12:14:50	24	le{SPACE}renard{ENTER}	0	le{SPACE}redant{ENTER}	5535	de vos
17	13:21:58	1	la{SPACE}bedaine{ENTER}	0	le{SPACE}mende{ENTER}	16335	de bierbuik
17	13:21:58	2	la{SPACE}peluche{ENTER}	0	la{SPACE}pluiche{ENTER}	8057	het pluisje
17	13:21:58	3	le{SPACE}recul{ENTER}	0	le{SPACE}recoule{ENTER}	6581	de teruggang
17	13:21:58	4	la{SPACE}pelouse{ENTER}	0	le{SPACE}pelouze{ENTER}	13134	het gazon
17	13:21:58	5	le{SPACE}fenouil{ENTER}	0	le{SPACE}requil{ENTER}	26261	de venkel
17	13:21:58	6	la{SPACE}levrette{ENTER}	0	le{SPACE}ventre{ENTER}	19064	de windhond
17	13:21:58	7	le{SPACE}reflet{ENTER}	0	le{SPACE}reflex{ENTER}	6819	de reflex
17	13:21:58	8	le{SPACE}requin{ENTER}	0	le{SPACE}recille{ENTER}	29654	de haai
17	13:21:58	9	la{SPACE}semoule{ENTER}	0	la{SPACE}chouffe{ENTER}	29041	de griesmeel
17	13:21:58	10	la{SPACE}chenille{ENTER}	0	la{SPACE}cille{ENTER}	14622	de rups
17	13:21:58	11	la{SPACE}menotte{ENTER}	0	le{SPACE}mende{ENTER}	21405	het handje
17	13:21:58	12	le{SPACE}rebond{ENTER}	0	le{SPACE}recourt{ENTER}	26199	de terugstoot
17	13:21:58	13	le{SPACE}chenil{ENTER}	0	la{SPACE}chien{ENTER}	14851	de kennel
17	13:21:58	14	la{SPACE}reliure{ENTER}	0	le{SPACE}mondre{ENTER}	20432	de boekband
17	13:21:58	15	le{SPACE}recel{ENTER}	0	le{SPACE}vendre{ENTER}	31179	de heling
17	13:21:58	16	le{SPACE}remous{ENTER}	0	le{SPACE}recuille{ENTER}	20657	de zuiging
17	13:21:58	17	le{SPACE}geni{SHIFT}evre{ENTER}	0	le{SPACE}genievre{ENTER}	13890	de jeneverbes
17	13:21:58	18	le{SPACE}sevrage{ENTER}	0	le{SPACE}sauvrage{ENTER}	6766	het onttrekken
17	13:21:58	19	la{SPACE}semelle{ENTER}	0	le{SPACE}vindre{ENTER}	19839	de schoenzool
17	13:21:58	20	la{SPACE}secousse{ENTER}	0	le{SPACE}choul{ENTER}	10811	de ruk
17	13:21:58	21	le{SPACE}faisan{ENTER}	0	le{SPACE}fazant{ENTER}	5991	de fazant
17	13:21:58	22	la{SPACE}belette{ENTER}	0	le{SPACE}sond{ENTER}	41690	de wezel
17	13:21:58	23	le{SPACE}meneau{ENTER}	0	la{SPACE}menou{ENTER}	22821	de paal
17	13:21:58	24	le{SPACE}renard{ENTER}	0	le{SPACE}reinard{ENTER}	11902	de vos
18	14:46:04	1	la{SPACE}bedaine{ENTER}	0	le{SPACE}medaine{ENTER}	3404	de bierbuik
18	14:46:04	2	la{SPACE}peluche{ENTER}	0	le{SPACE}pelouse{ENTER}	3641	het pluisje
18	14:46:04	3	le{SPACE}recul{ENTER}	0	le{SPACE}reluc{ENTER}	1897	de teruggang
18	14:46:04	4	la{SPACE}pelouse{ENTER}	0	leredaine{ENTER}	6978	het gazon
18	14:46:04	5	le{SPACE}fenouil{ENTER}	0	felaine{ENTER}	3789	de venkel
18	14:46:04	6	la{SPACE}levrette{ENTER}	0	le{SPACE}levrette{ENTER}	4202	de windhond
18	14:46:04	7	le{SPACE}reflet{ENTER}	0	la{SPACE}reflte{ENTER}	5205	de reflex
18	14:46:04	8	le{SPACE}requin{ENTER}	1	le{SPACE}requin{ENTER}	5892	de haai
18	14:46:04	9	la{SPACE}semoule{ENTER}	0	le{SPACE}semoule{ENTER}	4600	de griesmeel
18	14:46:04	10	la{SPACE}chenille{ENTER}	0	le{SPACE}mouse{ENTER}	6496	de rups
18	14:46:04	11	la{SPACE}menotte{ENTER}	0	la{SPACE}medaine{ENTER}	2946	het handje
18	14:46:04	12	le{SPACE}rebond{ENTER}	0	le{SPACE}rebon{ENTER}	2618	de terugstoot
18	14:46:04	13	le{SPACE}chenil{ENTER}	0	le{SPACE}chenile{ENTER}	3046	de kennel
18	14:46:04	14	la{SPACE}reliure{ENTER}	0	le{SPACE}recul{ENTER}	2493	de boekband
18	14:46:04	15	le{SPACE}recel{ENTER}	1	le{SPACE}recel{ENTER}	2445	de heling
18	14:46:04	16	le{SPACE}remous{ENTER}	0	le{SPACE}suc{ENTER}	2711	de zuiging
18	14:46:04	17	le{SPACE}geni{SHIFT}evre{ENTER}	0	le{SPACE}genevere{ENTER}	5164	de jeneverbes
18	14:46:04	18	le{SPACE}sevrage{ENTER}	0	lele{ENTER}	1635	het onttrekken
18	14:46:04	19	la{SPACE}semelle{ENTER}	0	le{SPACE}semoule{ENTER}	2797	de schoenzool
18	14:46:04	20	la{SPACE}secousse{ENTER}	0	le{SPACE}secuish{ENTER}	6447	de ruk
18	14:46:04	21	le{SPACE}faisan{ENTER}	0	la{SPACE}faisant{ENTER}	2696	de fazant
18	14:46:04	22	la{SPACE}belette{ENTER}	0	le{SPACE}emour{ENTER}	7900	de wezel
18	14:46:04	23	le{SPACE}meneau{ENTER}	0	la{SPACE}mediane{ENTER}	3293	de paal
18	14:46:04	24	le{SPACE}renard{ENTER}	0	le{SPACE}rernard{ENTER}	3834	de vos
19	13:48:28	1	la{SPACE}bedaine{ENTER}	0	{CAPSLOCK}L{CAPSLOCK}e{SPACE}{CAPSLOCK}L{CAPSLOCK}en{SHIFT}Etre{ENTER}	11646	de bierbuik
19	13:48:28	2	la{SPACE}peluche{ENTER}	0	{CAPSLOCK}L{CAPSLOCK}a{SPACE}pl{SHIFT}uche{ENTER}	32819	het pluisje
19	13:48:28	3	le{SPACE}recul{ENTER}	0	{CAPSLOCK}L{CAPSLOCK}e{SPACE}ruc{SHIFT}Ul{ENTER}	19508	de teruggang
19	13:48:28	4	la{SPACE}pelouse{ENTER}	0	{CAPSLOCK}L{CAPSLOCK}e{SPACE}plulus{ENTER}	38609	het gazon
19	13:48:28	5	le{SPACE}fenouil{ENTER}	0	{CAPSLOCK}L{CAPSLOCK}e{SPACE}fennetre{ENTER}	12652	de venkel
19	13:48:28	6	la{SPACE}levrette{ENTER}	0	L{CAPSLOCK}e{SPACE}bull{CAPSLOCK}E{CAPSLOCK}t{ENTER}	4998	de windhond
19	13:48:28	7	le{SPACE}reflet{ENTER}	0	{CAPSLOCK}L{CAPSLOCK}e{SPACE}reflex{ENTER}	6103	de reflex
19	13:48:28	8	le{SPACE}requin{ENTER}	0	{CAPSLOCK}{CAPSLOCK}L{CAPSLOCK}e{SPACE}nar{ENTER}	5141	de haai
19	13:48:28	9	la{SPACE}semoule{ENTER}	0	L{CAPSLOCK}a{SPACE}semoele{ENTER}	14129	de griesmeel
19	13:48:28	10	la{SPACE}chenille{ENTER}	0	{CAPSLOCK}L{CAPSLOCK}a{SPACE}ch{CAPSLOCK}E{CAPSLOCK}nine{ENTER}	10475	de rups
19	13:48:28	11	la{SPACE}menotte{ENTER}	0	{CAPSLOCK}L{CAPSLOCK}a{SPACE}lun{CAPSLOCK}{CAPSLOCK}{CAPSLOCK}O{CAPSLOCK}tte{ENTER}	16800	het handje
19	13:48:28	12	le{SPACE}rebond{ENTER}	0	L{CAPSLOCK}a{SPACE}ruk{SHIFT}Us{ENTER}	9445	de terugstoot
19	13:48:28	13	le{SPACE}chenil{ENTER}	0	L{CAPSLOCK}e{SPACE}senille{ENTER}	8773	de kennel
19	13:48:28	14	la{SPACE}reliure{ENTER}	0	L{CAPSLOCK}e{SPACE}lal{SHIFT}U{SHIFT}Ur{ENTER}	12034	de boekband
19	13:48:28	15	le{SPACE}recel{ENTER}	0	{CAPSLOCK}L{CAPSLOCK}e{SPACE}sennelle{ENTER}	7557	de heling
19	13:48:28	16	le{SPACE}remous{ENTER}	0	L{CAPSLOCK}e{SPACE}rumoure{ENTER}	6425	de zuiging
19	13:48:28	17	le{SPACE}geni{SHIFT}evre{ENTER}	0	{CAPSLOCK}{CAPSLOCK}{CAPSLOCK}{CAPSLOCK}L{CAPSLOCK}e{SPACE}jenev{CAPSLOCK}E{CAPSLOCK}rre{ENTER}	11036	de jeneverbes
19	13:48:28	18	le{SPACE}sevrage{ENTER}	0	{CAPSLOCK}S{CAPSLOCK}{'}{SPACE}esster{ENTER}	20748	het onttrekken
19	13:48:28	19	la{SPACE}semelle{ENTER}	0	L{CAPSLOCK}e{SPACE}sommelle{ENTER}	18303	de schoenzool
19	13:48:28	20	la{SPACE}secousse{ENTER}	0	{CAPSLOCK}L{CAPSLOCK}a{SPACE}{CAPSLOCK}{CAPSLOCK}ru{SHIFT}k{SHIFT}Us{ENTER}	17370	de ruk
19	13:48:28	21	le{SPACE}faisan{ENTER}	0	{CAPSLOCK}L{CAPSLOCK}e{SPACE}fazante{ENTER}	3372	de fazant
19	13:48:28	22	la{SPACE}belette{ENTER}	0	L{CAPSLOCK}e{SPACE}bullette{ENTER}	7361	de wezel
19	13:48:28	23	le{SPACE}meneau{ENTER}	0	L{CAPSLOCK}a{SPACE}men{CAPSLOCK}O{CAPSLOCK}{ENTER}	4352	de paal
19	13:48:28	24	le{SPACE}renard{ENTER}	0	{CAPSLOCK}L{CAPSLOCK}e{SPACE}nar{ENTER}	1826	de vos
2	11:21:36	1	la{SPACE}bedaine{ENTER}	0	la{SPACE}{ENTER}	19957	de bierbuik
2	11:21:36	2	la{SPACE}peluche{ENTER}	0	le{SPACE}peluche{ENTER}	7343	het pluisje
2	11:21:36	3	le{SPACE}recul{ENTER}	1	le{SPACE}recul{ENTER}	13193	de teruggang
2	11:21:36	4	la{SPACE}pelouse{ENTER}	0	la{SPACE}{ENTER}	9723	het gazon
2	11:21:36	5	le{SPACE}fenouil{ENTER}	0	la{SPACE}fourage{ENTER}	9235	de venkel
2	11:21:36	6	la{SPACE}levrette{ENTER}	1	la{SPACE}levrette{ENTER}	19654	de windhond
2	11:21:36	7	le{SPACE}reflet{ENTER}	0	le{SPACE}reflage{ENTER}	8215	de reflex
2	11:21:36	8	le{SPACE}requin{ENTER}	1	le{SPACE}requin{ENTER}	4635	de haai
2	11:21:36	9	la{SPACE}semoule{ENTER}	0	la{SPACE}{ENTER}	24513	de griesmeel
2	11:21:36	10	la{SPACE}chenille{ENTER}	0	le{SPACE}chenile{ENTER}	6973	de rups
2	11:21:36	11	la{SPACE}menotte{ENTER}	0	la{SPACE}monette{ENTER}	16612	het handje
2	11:21:36	12	le{SPACE}rebond{ENTER}	1	le{SPACE}rebond{ENTER}	4912	de terugstoot
2	11:21:36	13	le{SPACE}chenil{ENTER}	0	la{SPACE}chanille{ENTER}	3758	de kennel
2	11:21:36	14	la{SPACE}reliure{ENTER}	0	le{SPACE}{ENTER}	20302	de boekband
2	11:21:36	15	le{SPACE}recel{ENTER}	0	le{SPACE}recul{ENTER}	23729	de heling
2	11:21:36	16	le{SPACE}remous{ENTER}	0	le{SPACE}r{ENTER}	11065	de zuiging
2	11:21:36	17	le{SPACE}geni{SHIFT}evre{ENTER}	0	le{SPACE}gen{LEFTARROW}{SHIFT}Evre{ENTER}	13572	de jeneverbes
2	11:21:36	18	le{SPACE}sevrage{ENTER}	0	le{SPACE}souvrage{ENTER}	7921	het onttrekken
2	11:21:36	19	la{SPACE}semelle{ENTER}	0	le{SPACE}{ENTER}	11250	de schoenzool
2	11:21:36	20	la{SPACE}secousse{ENTER}	0	le{SPACE}secousse{ENTER}	12635	de ruk
2	11:21:36	21	le{SPACE}faisan{ENTER}	0	le{SPACE}fesant{ENTER}	8746	de fazant
2	11:21:36	22	la{SPACE}belette{ENTER}	0	le{SPACE}belette{ENTER}	29805	de wezel
2	11:21:36	23	le{SPACE}meneau{ENTER}	0	le{SPACE}mourage{ENTER}	22338	de paal
2	11:21:36	24	le{SPACE}renard{ENTER}	0	le{SPACE}re{.}{.}{ENTER}	30887	de vos
20	10:15:44	1	la{SPACE}bedaine{ENTER}	0	le{SPACE}belette{ENTER}	7889	de bierbuik
20	10:15:44	2	la{SPACE}peluche{ENTER}	0	la{SPACE}paluche{ENTER}	3517	het pluisje
20	10:15:44	3	le{SPACE}recul{ENTER}	0	la{SPACE}recol{SHIFT}E{ENTER}	5669	de teruggang
20	10:15:44	4	la{SPACE}pelouse{ENTER}	0	la{SPACE}palouch{SHIFT}E{ENTER}	9514	het gazon
20	10:15:44	5	le{SPACE}fenouil{ENTER}	0	le{SPACE}venkel{ENTER}	7290	de venkel
20	10:15:44	6	la{SPACE}levrette{ENTER}	0	la{SPACE}lavaette{ENTER}	9159	de windhond
20	10:15:44	7	le{SPACE}reflet{ENTER}	0	la{SPACE}reflet{ENTER}	5676	de reflex
20	10:15:44	8	le{SPACE}requin{ENTER}	0	le{SPACE}repoi{ENTER}	10021	de haai
20	10:15:44	9	la{SPACE}semoule{ENTER}	1	la{SPACE}semoule{ENTER}	3843	de griesmeel
20	10:15:44	10	la{SPACE}chenille{ENTER}	1	la{SPACE}chenille{ENTER}	8210	de rups
20	10:15:44	11	la{SPACE}menotte{ENTER}	0	la{SPACE}malotte{ENTER}	5022	het handje
20	10:15:44	12	le{SPACE}rebond{ENTER}	0	la{SPACE}recol{SHIFT}{SHIFT}E{ENTER}	4970	de terugstoot
20	10:15:44	13	le{SPACE}chenil{ENTER}	1	le{SPACE}chenil{ENTER}	4345	de kennel
20	10:15:44	14	la{SPACE}reliure{ENTER}	0	le{SPACE}recin{ENTER}	6508	de boekband
20	10:15:44	15	le{SPACE}recel{ENTER}	0	le{SPACE}recin{ENTER}	3739	de heling
20	10:15:44	16	le{SPACE}remous{ENTER}	0	le{SPACE}zuiging{ENTER}	6424	de zuiging
20	10:15:44	17	le{SPACE}geni{SHIFT}evre{ENTER}	0	la{SPACE}genievre{ENTER}	2957	de jeneverbes
20	10:15:44	18	le{SPACE}sevrage{ENTER}	0	la{SPACE}sevrage{ENTER}	6692	het onttrekken
20	10:15:44	19	la{SPACE}semelle{ENTER}	0	le{SPACE}semelle{ENTER}	4739	de schoenzool
20	10:15:44	20	la{SPACE}secousse{ENTER}	0	la{SPACE}secoes{ENTER}	12174	de ruk
20	10:15:44	21	le{SPACE}faisan{ENTER}	0	le{SPACE}faizan{ENTER}	4018	de fazant
20	10:15:44	22	la{SPACE}belette{ENTER}	1	la{SPACE}belette{ENTER}	3810	de wezel
20	10:15:44	23	le{SPACE}meneau{ENTER}	0	le{SPACE}meneu{ENTER}	3726	de paal
20	10:15:44	24	le{SPACE}renard{ENTER}	1	le{SPACE}renard{ENTER}	1788	de vos
21	13:19:05	1	la{SPACE}bedaine{ENTER}	0	le{SPACE}{ENTER}	21506	de bierbuik
21	13:19:05	2	la{SPACE}peluche{ENTER}	0	la{SPACE}pl{SHIFT}Uche{ENTER}	6341	het pluisje
21	13:19:05	3	le{SPACE}recul{ENTER}	0	la{SPACE}secourse{ENTER}	15270	de teruggang
21	13:19:05	4	la{SPACE}pelouse{ENTER}	0	la{ENTER}	15981	het gazon
21	13:19:05	5	le{SPACE}fenouil{ENTER}	0	la{SPACE}venouille{ENTER}	5821	de venkel
21	13:19:05	6	la{SPACE}levrette{ENTER}	0	le{ENTER}	5656	de windhond
21	13:19:05	7	le{SPACE}reflet{ENTER}	0	le{SPACE}reflex{ENTER}	5003	de reflex
21	13:19:05	8	le{SPACE}requin{ENTER}	0	le{ENTER}	4702	de haai
21	13:19:05	9	la{SPACE}semoule{ENTER}	0	la{SPACE}semousse{ENTER}	7562	de griesmeel
21	13:19:05	10	la{SPACE}chenille{ENTER}	0	le{ENTER}	12273	de rups
21	13:19:05	11	la{SPACE}menotte{ENTER}	0	le{SPACE}ma{SHIFT}Ine{ENTER}	9939	het handje
21	13:19:05	12	le{SPACE}rebond{ENTER}	0	le{SPACE}recourse{ENTER}	11563	de terugstoot
21	13:19:05	13	le{SPACE}chenil{ENTER}	0	la{SPACE}chenille{ENTER}	3102	de kennel
21	13:19:05	14	la{SPACE}reliure{ENTER}	0	l{SHIFT}Aillure{ENTER}	10795	de boekband
21	13:19:05	15	le{SPACE}recel{ENTER}	0	le{ENTER}	11461	de heling
21	13:19:05	16	le{SPACE}remous{ENTER}	0	le{ENTER}	11849	de zuiging
21	13:19:05	17	le{SPACE}geni{SHIFT}evre{ENTER}	0	la{SPACE}jenouille{ENTER}	14337	de jeneverbes
21	13:19:05	18	le{SPACE}sevrage{ENTER}	0	le{SPACE}secourse{ENTER}	5170	het onttrekken
21	13:19:05	19	la{SPACE}semelle{ENTER}	0	l{SHIFT}Eschmelle{ENTER}	32968	de schoenzool
21	13:19:05	20	la{SPACE}secousse{ENTER}	0	le{ENTER}	4897	de ruk
21	13:19:05	21	le{SPACE}faisan{ENTER}	0	le{SPACE}fazant{ENTER}	2635	de fazant
21	13:19:05	22	la{SPACE}belette{ENTER}	0	le{SPACE}bouton{ENTER}	5264	de wezel
21	13:19:05	23	le{SPACE}meneau{ENTER}	0	le{SPACE}miene{ENTER}	8776	de paal
21	13:19:05	24	le{SPACE}renard{ENTER}	0	le{SPACE}bouton{ENTER}	8051	de vos
22	9:21:38	1	la{SPACE}bedaine{ENTER}	1	la{SPACE}bedaine{ENTER}	4519	de bierbuik
22	9:21:38	2	la{SPACE}peluche{ENTER}	0	la{SPACE}p{LEFTARROW}{LEFTARROW}{LEFTARROW}{LEFTARROW}eluche{ENTER}	16842	het pluisje
22	9:21:38	3	le{SPACE}recul{ENTER}	1	le{SPACE}recul{ENTER}	8190	de teruggang
22	9:21:38	4	la{SPACE}pelouse{ENTER}	1	la{SPACE}pelouse{ENTER}	7533	het gazon
22	9:21:38	5	le{SPACE}fenouil{ENTER}	0	le{SPACE}fen{SHIFT}Etre{ENTER}	12683	de venkel
22	9:21:38	6	la{SPACE}levrette{ENTER}	0	le{SPACE}chefrette{ENTER}	25588	de windhond
22	9:21:38	7	le{SPACE}reflet{ENTER}	1	le{SPACE}reflet{ENTER}	3574	de reflex
22	9:21:38	8	le{SPACE}requin{ENTER}	1	le{SPACE}requin{ENTER}	2910	de haai
22	9:21:38	9	la{SPACE}semoule{ENTER}	1	la{SPACE}semoule{ENTER}	4039	de griesmeel
22	9:21:38	10	la{SPACE}chenille{ENTER}	1	la{SPACE}chenille{ENTER}	9424	de rups
22	9:21:38	11	la{SPACE}menotte{ENTER}	0	le{SPACE}menoutte{ENTER}	10284	het handje
22	9:21:38	12	le{SPACE}rebond{ENTER}	0	le{SPACE}recul{ENTER}	4324	de terugstoot
22	9:21:38	13	le{SPACE}chenil{ENTER}	0	le{SPACE}chennil{ENTER}	3036	de kennel
22	9:21:38	14	la{SPACE}reliure{ENTER}	0	la{SPACE}requile{ENTER}	7593	de boekband
22	9:21:38	15	le{SPACE}recel{ENTER}	0	le{SPACE}recul{ENTER}	36254	de heling
22	9:21:38	16	le{SPACE}remous{ENTER}	0	le{SPACE}remouse{ENTER}	2884	de zuiging
22	9:21:38	17	le{SPACE}geni{SHIFT}evre{ENTER}	1	le{SPACE}geni{SHIFT}Evre{ENTER}	6263	de jeneverbes
22	9:21:38	18	le{SPACE}sevrage{ENTER}	0	le{SPACE}remotre{ENTER}	22914	het onttrekken
22	9:21:38	19	la{SPACE}semelle{ENTER}	0	le{SPACE}secouse{ENTER}	6850	de schoenzool
22	9:21:38	20	la{SPACE}secousse{ENTER}	0	le{SPACE}secouse{ENTER}	13230	de ruk
22	9:21:38	21	le{SPACE}faisan{ENTER}	1	le{SPACE}faisan{ENTER}	2867	de fazant
22	9:21:38	22	la{SPACE}belette{ENTER}	0	la{SPACE}bedette{ENTER}	15982	de wezel
22	9:21:38	23	le{SPACE}meneau{ENTER}	0	le{SPACE}secouse{ENTER}	14070	de paal
22	9:21:38	24	le{SPACE}renard{ENTER}	1	le{SPACE}renard{ENTER}	2686	de vos
23	14:17:37	1	la{SPACE}bedaine{ENTER}	0	la{SPACE}br{ENTER}	25702	de bierbuik
23	14:17:37	2	la{SPACE}peluche{ENTER}	0	{SPACE}la{SPACE}puluche{ENTER}	13711	het pluisje
23	14:17:37	3	le{SPACE}recul{ENTER}	0	le{SPACE}{ENTER}	46817	de teruggang
23	14:17:37	4	la{SPACE}pelouse{ENTER}	0	le{SPACE}pluche{ENTER}	34111	het gazon
23	14:17:37	5	le{SPACE}fenouil{ENTER}	0	le{SPACE}fenail{ENTER}	11718	de venkel
23	14:17:37	6	la{SPACE}levrette{ENTER}	0	le{SPACE}cheniel{ENTER}	4840	de windhond
23	14:17:37	7	le{SPACE}reflet{ENTER}	0	le{SPACE}r{SHIFT}Eflex{ENTER}	13846	de reflex
23	14:17:37	8	le{SPACE}requin{ENTER}	0	le{SPACE}reqain{ENTER}	32288	de haai
23	14:17:37	9	la{SPACE}semoule{ENTER}	1	la{SPACE}semoule{ENTER}	18462	de griesmeel
23	14:17:37	10	la{SPACE}chenille{ENTER}	0	le{SPACE}chenille{ENTER}	7786	de rups
23	14:17:37	11	la{SPACE}menotte{ENTER}	0	la{SPACE}rmoe{ENTER}	1468	het handje
23	14:17:37	12	le{SPACE}rebond{ENTER}	0	le{SPACE}{ENTER}	12354	de terugstoot
23	14:17:37	13	le{SPACE}chenil{ENTER}	0	le{SPACE}chenniel{ENTER}	15143	de kennel
23	14:17:37	14	la{SPACE}reliure{ENTER}	0	le{SPACE}br{ENTER}	17691	de boekband
23	14:17:37	15	le{SPACE}recel{ENTER}	0	le{SPACE}{ENTER}	39624	de heling
23	14:17:37	16	le{SPACE}remous{ENTER}	0	le{SPACE}remou{ENTER}	12369	de zuiging
23	14:17:37	17	le{SPACE}geni{SHIFT}evre{ENTER}	0	la{SPACE}genevere{ENTER}	6904	de jeneverbes
23	14:17:37	18	le{SPACE}sevrage{ENTER}	0	{ENTER}	34452	het onttrekken
23	14:17:37	19	la{SPACE}semelle{ENTER}	1	la{SPACE}semelle{ENTER}	14695	de schoenzool
23	14:17:37	20	la{SPACE}secousse{ENTER}	0	le{SPACE}yank{ENTER}	12849	de ruk
23	14:17:37	21	le{SPACE}faisan{ENTER}	0	la{SPACE}f{SHIFT}Ezant{ENTER}	13102	de fazant
23	14:17:37	22	la{SPACE}belette{ENTER}	0	la{SPACE}boulette{ENTER}	8137	de wezel
23	14:17:37	23	le{SPACE}meneau{ENTER}	0	{ENTER}	16484	de paal
23	14:17:37	24	le{SPACE}renard{ENTER}	0	le{SPACE}reinaert{ENTER}	6885	de vos
24	14:52:37	1	la{SPACE}bedaine{ENTER}	1	la{SPACE}bedaine{ENTER}	7201	de bierbuik
24	14:52:37	2	la{SPACE}peluche{ENTER}	0	la{SPACE}pelouse{ENTER}	14959	het pluisje
24	14:52:37	3	le{SPACE}recul{ENTER}	0	le{SPACE}rebus{ENTER}	9737	de teruggang
24	14:52:37	4	la{SPACE}pelouse{ENTER}	0	la{SPACE}{ENTER}	22748	het gazon
24	14:52:37	5	le{SPACE}fenouil{ENTER}	0	le{SPACE}venouille{ENTER}	8538	de venkel
24	14:52:37	6	la{SPACE}levrette{ENTER}	1	la{SPACE}levrette{ENTER}	3891	de windhond
24	14:52:37	7	le{SPACE}reflet{ENTER}	1	le{SPACE}reflet{ENTER}	6879	de reflex
24	14:52:37	8	le{SPACE}requin{ENTER}	0	{SPACE}le{SPACE}requis{ENTER}	9524	de haai
24	14:52:37	9	la{SPACE}semoule{ENTER}	0	la{SPACE}servrais{ENTER}	9612	de griesmeel
24	14:52:37	10	la{SPACE}chenille{ENTER}	0	le{SPACE}ch{ENTER}	10069	de rups
24	14:52:37	11	la{SPACE}menotte{ENTER}	0	la{SPACE}menoux{ENTER}	9310	het handje
24	14:52:37	12	le{SPACE}rebond{ENTER}	0	{SPACE}le{SPACE}secousse{ENTER}	15912	de terugstoot
24	14:52:37	13	le{SPACE}chenil{ENTER}	0	le{SPACE}chenille{ENTER}	5521	de kennel
24	14:52:37	14	la{SPACE}reliure{ENTER}	0	le{SPACE}bedeaux{ENTER}	13063	de boekband
24	14:52:37	15	le{SPACE}recel{ENTER}	0	le{SPACE}recal{ENTER}	6086	de heling
24	14:52:37	16	le{SPACE}remous{ENTER}	0	le{SPACE}recal{ENTER}	16077	de zuiging
24	14:52:37	17	le{SPACE}geni{SHIFT}evre{ENTER}	0	le{SPACE}gen{CAPSLOCK}E{CAPSLOCK}vre{ENTER}	12628	de jeneverbes
24	14:52:37	18	le{SPACE}sevrage{ENTER}	0	le{SPACE}serais{ENTER}	11709	het onttrekken
24	14:52:37	19	la{SPACE}semelle{ENTER}	0	{SPACE}la{SPACE}sem{CAPSLOCK}E{CAPSLOCK}lle{ENTER}	5676	de schoenzool
24	14:52:37	20	la{SPACE}secousse{ENTER}	0	{CAPSLOCK}{CAPSLOCK}la{SPACE}secousse{ENTER}	26896	de ruk
24	14:52:37	21	le{SPACE}faisan{ENTER}	0	le{SPACE}faisant{ENTER}	4050	de fazant
24	14:52:37	22	la{SPACE}belette{ENTER}	0	le{SPACE}servret{ENTER}	8169	de wezel
24	14:52:37	23	le{SPACE}meneau{ENTER}	0	le{SPACE}menoux{ENTER}	6310	de paal
24	14:52:37	24	le{SPACE}renard{ENTER}	1	le{SPACE}renard{ENTER}	3413	de vos
25	9:51:21	1	la{SPACE}bedaine{ENTER}	0	le{SPACE}belet{ENTER}	3852	de bierbuik
25	9:51:21	2	la{SPACE}peluche{ENTER}	0	la{SPACE}pluse{ENTER}	4702	het pluisje
25	9:51:21	3	le{SPACE}recul{ENTER}	0	le{SPACE}refort{ENTER}	7218	de teruggang
25	9:51:21	4	la{SPACE}pelouse{ENTER}	0	le{SPACE}gazon{ENTER}	15357	het gazon
25	9:51:21	5	le{SPACE}fenouil{ENTER}	0	la{SPACE}venie{ENTER}	8250	de venkel
25	9:51:21	6	la{SPACE}levrette{ENTER}	0	le{SPACE}chien{ENTER}	18104	de windhond
25	9:51:21	7	le{SPACE}reflet{ENTER}	0	le{SPACE}reflex{ENTER}	2717	de reflex
25	9:51:21	8	le{SPACE}requin{ENTER}	0	le{SPACE}recan{ENTER}	1872	de haai
25	9:51:21	9	la{SPACE}semoule{ENTER}	0	la{SPACE}smoel{ENTER}	4800	de griesmeel
25	9:51:21	10	la{SPACE}chenille{ENTER}	0	le{SPACE}gnie{ENTER}	7341	de rups
25	9:51:21	11	la{SPACE}menotte{ENTER}	0	le{SPACE}memot{ENTER}	5300	het handje
25	9:51:21	12	le{SPACE}rebond{ENTER}	0	le{SPACE}refort{ENTER}	5949	de terugstoot
25	9:51:21	13	le{SPACE}chenil{ENTER}	0	le{SPACE}gennel{ENTER}	2230	de kennel
25	9:51:21	14	la{SPACE}reliure{ENTER}	0	le{SPACE}lettre{ENTER}	9760	de boekband
25	9:51:21	15	le{SPACE}recel{ENTER}	0	le{SPACE}secouse{ENTER}	6099	de heling
25	9:51:21	16	le{SPACE}remous{ENTER}	0	la{SPACE}secouse{ENTER}	5230	de zuiging
25	9:51:21	17	le{SPACE}geni{SHIFT}evre{ENTER}	0	le{SPACE}genever{ENTER}	10087	de jeneverbes
25	9:51:21	18	le{SPACE}sevrage{ENTER}	0	le{SPACE}soufrit{ENTER}	3514	het onttrekken
25	9:51:21	19	la{SPACE}semelle{ENTER}	0	la{SPACE}chassure{ENTER}	13916	de schoenzool
25	9:51:21	20	la{SPACE}secousse{ENTER}	0	le{SPACE}ruk{ENTER}	22603	de ruk
25	9:51:21	21	le{SPACE}faisan{ENTER}	0	le{SPACE}fazant{ENTER}	1730	de fazant
25	9:51:21	22	la{SPACE}belette{ENTER}	0	le{SPACE}genel{ENTER}	13743	de wezel
25	9:51:21	23	le{SPACE}meneau{ENTER}	0	le{SPACE}paal{ENTER}	14301	de paal
25	9:51:21	24	le{SPACE}renard{ENTER}	1	le{SPACE}renard{ENTER}	2088	de vos
26	15:17:47	1	la{SPACE}bedaine{ENTER}	0	le{SPACE}bideon{ENTER}	15200	de bierbuik
26	15:17:47	2	la{SPACE}peluche{ENTER}	0	la{SPACE}paluisch{ENTER}	17853	het pluisje
26	15:17:47	3	le{SPACE}recul{ENTER}	0	le{SPACE}recel{ENTER}	8184	de teruggang
26	15:17:47	4	la{SPACE}pelouse{ENTER}	0	la{SPACE}maison{ENTER}	11559	het gazon
26	15:17:47	5	le{SPACE}fenouil{ENTER}	0	la{SPACE}venille{ENTER}	8769	de venkel
26	15:17:47	6	la{SPACE}levrette{ENTER}	0	la{SPACE}{SPACE}bilivlette{ENTER}	44372	de windhond
26	15:17:47	7	le{SPACE}reflet{ENTER}	0	la{SPACE}reflet{ENTER}	4305	de reflex
26	15:17:47	8	le{SPACE}requin{ENTER}	1	le{SPACE}requin{ENTER}	3767	de haai
26	15:17:47	9	la{SPACE}semoule{ENTER}	0	la{SPACE}samouse{ENTER}	7513	de griesmeel
26	15:17:47	10	la{SPACE}chenille{ENTER}	0	{SHIFT}{?}{ENTER}	27024	de rups
26	15:17:47	11	la{SPACE}menotte{ENTER}	1	la{SPACE}menotte{ENTER}	3904	het handje
26	15:17:47	12	le{SPACE}rebond{ENTER}	1	le{SPACE}rebond{ENTER}	4875	de terugstoot
26	15:17:47	13	le{SPACE}chenil{ENTER}	0	le{SPACE}chenill{ENTER}	4240	de kennel
26	15:17:47	14	la{SPACE}reliure{ENTER}	0	le{SPACE}libre{ENTER}	18253	de boekband
26	15:17:47	15	le{SPACE}recel{ENTER}	0	la{SPACE}recel{ENTER}	11200	de heling
26	15:17:47	16	le{SPACE}remous{ENTER}	0	le{SPACE}renoir{ENTER}	32619	de zuiging
26	15:17:47	17	le{SPACE}geni{SHIFT}evre{ENTER}	0	la{SPACE}genevi{SHIFT}Ere{ENTER}	17023	de jeneverbes
26	15:17:47	18	le{SPACE}sevrage{ENTER}	0	{SHIFT}{?}{ENTER}	3641	het onttrekken
26	15:17:47	19	la{SPACE}semelle{ENTER}	0	la{SPACE}{SPACE}sacoulle{ENTER}	9082	de schoenzool
26	15:17:47	20	la{SPACE}secousse{ENTER}	0	la{SPACE}sermous{ENTER}	35619	de ruk
26	15:17:47	21	le{SPACE}faisan{ENTER}	0	le{SPACE}f{LEFTARROW}{LEFTARROW}{LEFTARROW}ezan{ENTER}	11725	de fazant
26	15:17:47	22	la{SPACE}belette{ENTER}	0	la{SPACE}riclette{ENTER}	33940	de wezel
26	15:17:47	23	le{SPACE}meneau{ENTER}	0	la{SPACE}monieur{ENTER}	5027	de paal
26	15:17:47	24	le{SPACE}renard{ENTER}	1	le{SPACE}renard{ENTER}	4334	de vos
27	13:45:17	1	la{SPACE}bedaine{ENTER}	0	{SHIFT}Le{SPACE}betemp{ENTER}	12209	de bierbuik
27	13:45:17	2	la{SPACE}peluche{ENTER}	0	la{SPACE}pl{SHIFT}Uche{ENTER}	6581	het pluisje
27	13:45:17	3	le{SPACE}recul{ENTER}	0	le{SPACE}recule{ENTER}	4837	de teruggang
27	13:45:17	4	la{SPACE}pelouse{ENTER}	0	le{SPACE}palouche{ENTER}	9173	het gazon
27	13:45:17	5	le{SPACE}fenouil{ENTER}	0	la{SPACE}fenille{ENTER}	4298	de venkel
27	13:45:17	6	la{SPACE}levrette{ENTER}	0	la{SPACE}livrette{ENTER}	4449	de windhond
27	13:45:17	7	le{SPACE}reflet{ENTER}	0	le{SPACE}r{SHIFT}{SHIFT}{SHIFT}Efl{SHIFT}Ex{ENTER}	13838	de reflex
27	13:45:17	8	le{SPACE}requin{ENTER}	0	le{SPACE}retemp{ENTER}	7656	de haai
27	13:45:17	9	la{SPACE}semoule{ENTER}	0	la{SPACE}fremiel{ENTER}	9361	de griesmeel
27	13:45:17	10	la{SPACE}chenille{ENTER}	1	la{SPACE}chenille{ENTER}	5032	de rups
27	13:45:17	11	la{SPACE}menotte{ENTER}	0	le{SPACE}mignotte{ENTER}	5470	het handje
27	13:45:17	12	le{SPACE}rebond{ENTER}	0	la{SPACE}reb{SHIFT}On{ENTER}	5296	de terugstoot
27	13:45:17	13	le{SPACE}chenil{ENTER}	0	la{SPACE}chenille{ENTER}	6758	de kennel
27	13:45:17	14	la{SPACE}reliure{ENTER}	0	{SHIFT}La{SPACE}lelivre{ENTER}	11067	de boekband
27	13:45:17	15	le{SPACE}recel{ENTER}	0	le{SPACE}s{SHIFT}Ibon{ENTER}	9698	de heling
27	13:45:17	16	le{SPACE}remous{ENTER}	0	la{SPACE}{SHIFT}{SHIFT}Bedon{ENTER}	17775	de zuiging
27	13:45:17	17	le{SPACE}geni{SHIFT}evre{ENTER}	0	le{SPACE}{SHIFT}{SHIFT}j{SHIFT}En{SHIFT}Evre{ENTER}	10532	de jeneverbes
27	13:45:17	18	le{SPACE}sevrage{ENTER}	0	la{SPACE}rebelle{ENTER}	7228	het onttrekken
27	13:45:17	19	la{SPACE}semelle{ENTER}	0	la{SPACE}choucousse{ENTER}	5867	de schoenzool
27	13:45:17	20	la{SPACE}secousse{ENTER}	0	la{SPACE}choucousse{ENTER}	5153	de ruk
27	13:45:17	21	le{SPACE}faisan{ENTER}	0	le{SPACE}{SHIFT}fa{SHIFT}z{SHIFT}Ant{ENTER}	6171	de fazant
27	13:45:17	22	la{SPACE}belette{ENTER}	0	le{SPACE}petant{ENTER}	7033	de wezel
27	13:45:17	23	le{SPACE}meneau{ENTER}	0	le{SPACE}betant{ENTER}	9979	de paal
27	13:45:17	24	le{SPACE}renard{ENTER}	0	le{SPACE}r{SHIFT}e{SHIFT}n{SHIFT}Ard{ENTER}	8086	de vos
28	11:52:02	1	la{SPACE}bedaine{ENTER}	1	la{SPACE}bedaine{ENTER}	12531	de bierbuik
28	11:52:02	2	la{SPACE}peluche{ENTER}	0	la{SPACE}p{SHIFT}Eluche{ENTER}	16414	het pluisje
28	11:52:02	3	le{SPACE}recul{ENTER}	0	le{SPACE}rechant{ENTER}	15304	de teruggang
28	11:52:02	4	la{SPACE}pelouse{ENTER}	0	la{SPACE}pelouche{ENTER}	12607	het gazon
28	11:52:02	5	le{SPACE}fenouil{ENTER}	0	la{SPACE}fenouille{ENTER}	4408	de venkel
28	11:52:02	6	la{SPACE}levrette{ENTER}	0	la{SPACE}ferette{ENTER}	14489	de windhond
28	11:52:02	7	le{SPACE}reflet{ENTER}	0	la{SPACE}reflex{ENTER}	19781	de reflex
28	11:52:02	8	le{SPACE}requin{ENTER}	1	le{SPACE}requin{ENTER}	3553	de haai
28	11:52:02	9	la{SPACE}semoule{ENTER}	0	la{SPACE}semoulle{ENTER}	5375	de griesmeel
28	11:52:02	10	la{SPACE}chenille{ENTER}	0	la{SPACE}x{ENTER}	10021	de rups
28	11:52:02	11	la{SPACE}menotte{ENTER}	1	la{SPACE}menotte{ENTER}	7109	het handje
28	11:52:02	12	le{SPACE}rebond{ENTER}	0	le{SPACE}r{SHIFT}ebond{ENTER}	18254	de terugstoot
28	11:52:02	13	le{SPACE}chenil{ENTER}	0	le{SPACE}chenille{ENTER}	4576	de kennel
28	11:52:02	14	la{SPACE}reliure{ENTER}	0	la{SPACE}rechout{ENTER}	8115	de boekband
28	11:52:02	15	le{SPACE}recel{ENTER}	0	le{SPACE}re{ENTER}	7963	de heling
28	11:52:02	16	le{SPACE}remous{ENTER}	0	la{SPACE}mou{ENTER}	30211	de zuiging
28	11:52:02	17	le{SPACE}geni{SHIFT}evre{ENTER}	1	le{SPACE}geni{SHIFT}Evre{ENTER}	9189	de jeneverbes
28	11:52:02	18	le{SPACE}sevrage{ENTER}	0	le{SPACE}sechelle{ENTER}	22109	het onttrekken
28	11:52:02	19	la{SPACE}semelle{ENTER}	1	la{SPACE}semelle{ENTER}	12058	de schoenzool
28	11:52:02	20	la{SPACE}secousse{ENTER}	0	x{ENTER}	1259	de ruk
28	11:52:02	21	le{SPACE}faisan{ENTER}	0	la{SPACE}faissant{ENTER}	15318	de fazant
28	11:52:02	22	la{SPACE}belette{ENTER}	0	x{ENTER}	1058	de wezel
28	11:52:02	23	le{SPACE}meneau{ENTER}	0	{ENTER}	2709	de paal
28	11:52:02	24	le{SPACE}renard{ENTER}	1	le{SPACE}renard{ENTER}	3600	de vos
29	13:48:02	1	la{SPACE}bedaine{ENTER}	0	l{'}abdomen{ENTER}	9706	de bierbuik
29	13:48:02	2	la{SPACE}peluche{ENTER}	0	la{SPACE}pl{SHIFT}Uche{ENTER}	9031	het pluisje
29	13:48:02	3	le{SPACE}recul{ENTER}	0	le{SPACE}recuille{ENTER}	8048	de teruggang
29	13:48:02	4	la{SPACE}pelouse{ENTER}	1	la{SPACE}pelouse{ENTER}	3754	het gazon
29	13:48:02	5	le{SPACE}fenouil{ENTER}	0	le{SPACE}venouille{ENTER}	10538	de venkel
29	13:48:02	6	la{SPACE}levrette{ENTER}	1	la{SPACE}levrette{ENTER}	5646	de windhond
29	13:48:02	7	le{SPACE}reflet{ENTER}	0	le{SPACE}refl{SHIFT}Eche{ENTER}	8242	de reflex
29	13:48:02	8	le{SPACE}requin{ENTER}	0	le{SPACE}recain{ENTER}	6035	de haai
29	13:48:02	9	la{SPACE}semoule{ENTER}	0	la{SPACE}semoulle{ENTER}	9151	de griesmeel
29	13:48:02	10	la{SPACE}chenille{ENTER}	0	le{SPACE}chemise{ENTER}	14610	de rups
29	13:48:02	11	la{SPACE}menotte{ENTER}	0	le{SPACE}manotte{ENTER}	8312	het handje
29	13:48:02	12	le{SPACE}rebond{ENTER}	1	le{SPACE}rebond{ENTER}	7351	de terugstoot
29	13:48:02	13	le{SPACE}chenil{ENTER}	0	le{SPACE}chann{SHIFT}El{ENTER}	7549	de kennel
29	13:48:02	14	la{SPACE}reliure{ENTER}	0	le{SPACE}rollure{ENTER}	3851	de boekband
29	13:48:02	15	le{SPACE}recel{ENTER}	0	le{SPACE}reselle{ENTER}	6391	de heling
29	13:48:02	16	le{SPACE}remous{ENTER}	0	le{SPACE}remou{ENTER}	8371	de zuiging
29	13:48:02	17	le{SPACE}geni{SHIFT}evre{ENTER}	0	le{SPACE}jen{SHIFT}Evre{ENTER}	9480	de jeneverbes
29	13:48:02	18	le{SPACE}sevrage{ENTER}	0	le{SPACE}sauvrage{ENTER}	6791	het onttrekken
29	13:48:02	19	la{SPACE}semelle{ENTER}	0	la{SPACE}sem{SHIFT}elle{ENTER}	9332	de schoenzool
29	13:48:02	20	la{SPACE}secousse{ENTER}	1	la{SPACE}secousse{ENTER}	4689	de ruk
29	13:48:02	21	le{SPACE}faisan{ENTER}	0	le{SPACE}fezant{ENTER}	5268	de fazant
29	13:48:02	22	la{SPACE}belette{ENTER}	0	le{SPACE}beleur{ENTER}	13469	de wezel
29	13:48:02	23	le{SPACE}meneau{ENTER}	0	la{SPACE}menou{ENTER}	5466	de paal
29	13:48:02	24	le{SPACE}renard{ENTER}	0	le{SPACE}renaerde{ENTER}	8685	de vos
3	10:16:52	1	la{SPACE}bedaine{ENTER}	0	le{SPACE}{.}{.}{.}{ENTER}	24607	de bierbuik
3	10:16:52	2	la{SPACE}peluche{ENTER}	0	{SPACE}le{SPACE}pleus{ENTER}	32873	het pluisje
3	10:16:52	3	le{SPACE}recul{ENTER}	0	le{SPACE}retard{ENTER}	11198	de teruggang
3	10:16:52	4	la{SPACE}pelouse{ENTER}	0	le{SPACE}pluison{ENTER}	15524	het gazon
3	10:16:52	5	le{SPACE}fenouil{ENTER}	0	le{SPACE}{.}{.}{.}{ENTER}	34719	de venkel
3	10:16:52	6	la{SPACE}levrette{ENTER}	0	l{LEFTARROW}a{SPACE}frette{ENTER}	37381	de windhond
3	10:16:52	7	le{SPACE}reflet{ENTER}	0	le{SPACE}reflex{ENTER}	8534	de reflex
3	10:16:52	8	le{SPACE}requin{ENTER}	0	le{SPACE}recoin{ENTER}	12371	de haai
3	10:16:52	9	la{SPACE}semoule{ENTER}	0	l{LEFTARROW}a{SPACE}smielle{ENTER}	16405	de griesmeel
3	10:16:52	10	la{SPACE}chenille{ENTER}	0	le{SPACE}{.}{.}{.}{ENTER}	4545	de rups
3	10:16:52	11	la{SPACE}menotte{ENTER}	0	la{SPACE}nonte{ENTER}	28445	het handje
3	10:16:52	12	le{SPACE}rebond{ENTER}	0	le{SPACE}requin{ENTER}	9315	de terugstoot
3	10:16:52	13	le{SPACE}chenil{ENTER}	0	{SPACE}la{SPACE}chienne{ENTER}	14884	de kennel
3	10:16:52	14	la{SPACE}reliure{ENTER}	0	le{SPACE}{.}{.}{.}{ENTER}	1995	de boekband
3	10:16:52	15	le{SPACE}recel{ENTER}	0	la{SPACE}{.}{.}{.}{ENTER}	16618	de heling
3	10:16:52	16	le{SPACE}remous{ENTER}	0	la{SPACE}retout{ENTER}	6417	de zuiging
3	10:16:52	17	le{SPACE}geni{SHIFT}evre{ENTER}	0	la{SPACE}{.}{.}{.}{ENTER}	4480	de jeneverbes
3	10:16:52	18	le{SPACE}sevrage{ENTER}	0	le{SPACE}requin{ENTER}	4838	het onttrekken
3	10:16:52	19	la{SPACE}semelle{ENTER}	0	la{SPACE}smelle{ENTER}	8767	de schoenzool
3	10:16:52	20	la{SPACE}secousse{ENTER}	0	le{SPACE}{.}{.}{.}{ENTER}	15480	de ruk
3	10:16:52	21	le{SPACE}faisan{ENTER}	0	la{SPACE}fazant{ENTER}	4804	de fazant
3	10:16:52	22	la{SPACE}belette{ENTER}	0	le{SPACE}{.}{.}{.}{ENTER}	4001	de wezel
3	10:16:52	23	le{SPACE}meneau{ENTER}	0	le{SPACE}{.}{.}{.}{ENTER}	3326	de paal
3	10:16:52	24	le{SPACE}renard{ENTER}	1	le{SPACE}renard{ENTER}	4116	de vos
30	13:24:08	1	la{SPACE}bedaine{ENTER}	0	le{SPACE}chenele{ENTER}	2512	de bierbuik
30	13:24:08	2	la{SPACE}peluche{ENTER}	0	la{SPACE}pelouse{ENTER}	7171	het pluisje
30	13:24:08	3	le{SPACE}recul{ENTER}	0	le{SPACE}de{ENTER}	6320	de teruggang
30	13:24:08	4	la{SPACE}pelouse{ENTER}	0	la{SPACE}peluche{ENTER}	3256	het gazon
30	13:24:08	5	le{SPACE}fenouil{ENTER}	0	le{SPACE}sauvache{ENTER}	9877	de venkel
30	13:24:08	6	la{SPACE}levrette{ENTER}	0	le{SPACE}sevenote{ENTER}	4932	de windhond
30	13:24:08	7	le{SPACE}reflet{ENTER}	0	le{SPACE}reflech{ENTER}	9147	de reflex
30	13:24:08	8	le{SPACE}requin{ENTER}	0	le{SPACE}requen{ENTER}	11768	de haai
30	13:24:08	9	la{SPACE}semoule{ENTER}	0	le{SPACE}sau{ENTER}	12178	de griesmeel
30	13:24:08	10	la{SPACE}chenille{ENTER}	0	le{SPACE}sevenot{ENTER}	11292	de rups
30	13:24:08	11	la{SPACE}menotte{ENTER}	0	la{SPACE}menot{ENTER}	5529	het handje
30	13:24:08	12	le{SPACE}rebond{ENTER}	0	le{SPACE}destan{ENTER}	5616	de terugstoot
30	13:24:08	13	le{SPACE}chenil{ENTER}	0	le{SPACE}chennil{ENTER}	2973	de kennel
30	13:24:08	14	la{SPACE}reliure{ENTER}	0	le{SPACE}renoche{ENTER}	3269	de boekband
30	13:24:08	15	le{SPACE}recel{ENTER}	0	{ENTER}	113	de heling
30	13:24:08	16	le{SPACE}remous{ENTER}	0	le{SPACE}desu{ENTER}	9966	de zuiging
30	13:24:08	17	le{SPACE}geni{SHIFT}evre{ENTER}	0	{SPACE}le{SPACE}{SHIFT}j{SHIFT}Enevere{ENTER}	7018	de jeneverbes
30	13:24:08	18	le{SPACE}sevrage{ENTER}	0	{ENTER}	765	het onttrekken
30	13:24:08	19	la{SPACE}semelle{ENTER}	0	le{SPACE}semoulle{ENTER}	2127	de schoenzool
30	13:24:08	20	la{SPACE}secousse{ENTER}	0	le{SPACE}re{ENTER}	6690	de ruk
30	13:24:08	21	le{SPACE}faisan{ENTER}	0	le{SPACE}fazant{ENTER}	3091	de fazant
30	13:24:08	22	la{SPACE}belette{ENTER}	0	la{SPACE}menotte{ENTER}	1774	de wezel
30	13:24:08	23	le{SPACE}meneau{ENTER}	0	{ENTER}	1343	de paal
30	13:24:08	24	le{SPACE}renard{ENTER}	0	le{SPACE}reinard{ENTER}	5146	de vos
31	11:12:45	1	la{SPACE}bedaine{ENTER}	0	le{SPACE}bedain{ENTER}	4450	de bierbuik
31	11:12:45	2	la{SPACE}peluche{ENTER}	0	pluise{ENTER}	2700	het pluisje
31	11:12:45	3	le{SPACE}recul{ENTER}	0	le{SPACE}rebout{ENTER}	2707	de teruggang
31	11:12:45	4	la{SPACE}pelouse{ENTER}	0	le{SPACE}noir{ENTER}	3585	het gazon
31	11:12:45	5	le{SPACE}fenouil{ENTER}	0	le{SPACE}smeule{ENTER}	3843	de venkel
31	11:12:45	6	la{SPACE}levrette{ENTER}	0	le{SPACE}bedain{ENTER}	2545	de windhond
31	11:12:45	7	le{SPACE}reflet{ENTER}	0	le{SPACE}reflex{ENTER}	2680	de reflex
31	11:12:45	8	le{SPACE}requin{ENTER}	0	le{SPACE}snuille{ENTER}	5073	de haai
31	11:12:45	9	la{SPACE}semoule{ENTER}	0	{SPACE}le{SPACE}smuill{ENTER}	2424	de griesmeel
31	11:12:45	10	la{SPACE}chenille{ENTER}	0	le{SPACE}snuile{ENTER}	5287	de rups
31	11:12:45	11	la{SPACE}menotte{ENTER}	0	la{SPACE}bedain{ENTER}	3359	het handje
31	11:12:45	12	le{SPACE}rebond{ENTER}	0	le{SPACE}reboinks{ENTER}	4624	de terugstoot
31	11:12:45	13	le{SPACE}chenil{ENTER}	0	le{SPACE}somail{ENTER}	2090	de kennel
31	11:12:45	14	la{SPACE}reliure{ENTER}	0	le{SPACE}debain{ENTER}	3175	de boekband
31	11:12:45	15	le{SPACE}recel{ENTER}	0	le{SPACE}slope{ENTER}	1756	de heling
31	11:12:45	16	le{SPACE}remous{ENTER}	0	le{SPACE}grain{ENTER}	6442	de zuiging
31	11:12:45	17	le{SPACE}geni{SHIFT}evre{ENTER}	0	le{SPACE}genevres{ENTER}	3707	de jeneverbes
31	11:12:45	18	le{SPACE}sevrage{ENTER}	0	la{SPACE}snail{ENTER}	3020	het onttrekken
31	11:12:45	19	la{SPACE}semelle{ENTER}	0	le{SPACE}somail{ENTER}	1954	de schoenzool
31	11:12:45	20	la{SPACE}secousse{ENTER}	0	le{SPACE}tromage{ENTER}	3095	de ruk
31	11:12:45	21	le{SPACE}faisan{ENTER}	0	le{SPACE}fezant{ENTER}	2477	de fazant
31	11:12:45	22	la{SPACE}belette{ENTER}	0	le{SPACE}noir{ENTER}	1555	de wezel
31	11:12:45	23	le{SPACE}meneau{ENTER}	0	le{SPACE}pole{ENTER}	1285	de paal
31	11:12:45	24	le{SPACE}renard{ENTER}	0	le{SPACE}lord{ENTER}	2905	de vos
32	10:18:25	1	la{SPACE}bedaine{ENTER}	1	la{SPACE}bedaine{ENTER}	11328	de bierbuik
32	10:18:25	2	la{SPACE}peluche{ENTER}	1	la{SPACE}peluche{ENTER}	7412	het pluisje
32	10:18:25	3	le{SPACE}recul{ENTER}	1	le{SPACE}recul{ENTER}	11149	de teruggang
32	10:18:25	4	la{SPACE}pelouse{ENTER}	0	la{SPACE}pelouche{ENTER}	16681	het gazon
32	10:18:25	5	le{SPACE}fenouil{ENTER}	0	la{SPACE}fenail{ENTER}	8586	de venkel
32	10:18:25	6	la{SPACE}levrette{ENTER}	0	le{SPACE}severe{ENTER}	22420	de windhond
32	10:18:25	7	le{SPACE}reflet{ENTER}	0	la{SPACE}reflet{ENTER}	2948	de reflex
32	10:18:25	8	le{SPACE}requin{ENTER}	1	le{SPACE}requin{ENTER}	2526	de haai
32	10:18:25	9	la{SPACE}semoule{ENTER}	0	la{SPACE}semoulle{ENTER}	6383	de griesmeel
32	10:18:25	10	la{SPACE}chenille{ENTER}	1	la{SPACE}chenille{ENTER}	4198	de rups
32	10:18:25	11	la{SPACE}menotte{ENTER}	1	la{SPACE}menotte{ENTER}	4714	het handje
32	10:18:25	12	le{SPACE}rebond{ENTER}	1	le{SPACE}rebond{ENTER}	2775	de terugstoot
32	10:18:25	13	le{SPACE}chenil{ENTER}	0	la{SPACE}chenil{ENTER}	2896	de kennel
32	10:18:25	14	la{SPACE}reliure{ENTER}	1	la{SPACE}reliure{ENTER}	3775	de boekband
32	10:18:25	15	le{SPACE}recel{ENTER}	0	la{SPACE}recel{ENTER}	4568	de heling
32	10:18:25	16	le{SPACE}remous{ENTER}	0	la{SPACE}semoux{ENTER}	5420	de zuiging
32	10:18:25	17	le{SPACE}geni{SHIFT}evre{ENTER}	0	la{SPACE}jen{SHIFT}Evre{ENTER}	14265	de jeneverbes
32	10:18:25	18	le{SPACE}sevrage{ENTER}	0	la{SPACE}sevr{SHIFT}Age{ENTER}	8914	het onttrekken
32	10:18:25	19	la{SPACE}semelle{ENTER}	0	l{LEFTARROW}{LEFTARROW}a{SPACE}semelle{ENTER}	14524	de schoenzool
32	10:18:25	20	la{SPACE}secousse{ENTER}	0	la{SPACE}secouse{ENTER}	12017	de ruk
32	10:18:25	21	le{SPACE}faisan{ENTER}	0	le{SPACE}faisant{ENTER}	3996	de fazant
32	10:18:25	22	la{SPACE}belette{ENTER}	0	le{SPACE}{ENTER}	24087	de wezel
32	10:18:25	23	le{SPACE}meneau{ENTER}	0	la{SPACE}meneau{ENTER}	6385	de paal
32	10:18:25	24	le{SPACE}renard{ENTER}	0	le{SPACE}reinart{ENTER}	7638	de vos
33	16:03:48	1	la{SPACE}bedaine{ENTER}	0	le{SPACE}r{ENTER}	18517	de bierbuik
33	16:03:48	2	la{SPACE}peluche{ENTER}	0	le{SPACE}pelush{ENTER}	8306	het pluisje
33	16:03:48	3	le{SPACE}recul{ENTER}	0	le{SPACE}ricule{ENTER}	4346	de teruggang
33	16:03:48	4	la{SPACE}pelouse{ENTER}	0	la{SPACE}smoul{ENTER}	9493	het gazon
33	16:03:48	5	le{SPACE}fenouil{ENTER}	0	le{SPACE}{ENTER}	7442	de venkel
33	16:03:48	6	la{SPACE}levrette{ENTER}	0	le{SPACE}lafret{ENTER}	5614	de windhond
33	16:03:48	7	le{SPACE}reflet{ENTER}	0	{SPACE}le{SPACE}reflex{ENTER}	5791	de reflex
33	16:03:48	8	le{SPACE}requin{ENTER}	0	le{SPACE}{ENTER}	10098	de haai
33	16:03:48	9	la{SPACE}semoule{ENTER}	0	la{SPACE}smiele{ENTER}	4196	de griesmeel
33	16:03:48	10	la{SPACE}chenille{ENTER}	0	{ENTER}	9211	de rups
33	16:03:48	11	la{SPACE}menotte{ENTER}	0	la{SPACE}minot{ENTER}	6788	het handje
33	16:03:48	12	le{SPACE}rebond{ENTER}	0	le{SPACE}ribon{ENTER}	8906	de terugstoot
33	16:03:48	13	le{SPACE}chenil{ENTER}	0	le{SPACE}chennel{ENTER}	9987	de kennel
33	16:03:48	14	la{SPACE}reliure{ENTER}	0	{ENTER}	2046	de boekband
33	16:03:48	15	le{SPACE}recel{ENTER}	0	le{ENTER}	6790	de heling
33	16:03:48	16	le{SPACE}remous{ENTER}	0	le{SPACE}remove{ENTER}	6159	de zuiging
33	16:03:48	17	le{SPACE}geni{SHIFT}evre{ENTER}	0	jenevre{ENTER}	5896	de jeneverbes
33	16:03:48	18	le{SPACE}sevrage{ENTER}	0	le{SPACE}ricon{ENTER}	6603	het onttrekken
33	16:03:48	19	la{SPACE}semelle{ENTER}	0	le{ENTER}	6046	de schoenzool
33	16:03:48	20	la{SPACE}secousse{ENTER}	0	le{SPACE}circos{ENTER}	9273	de ruk
33	16:03:48	21	le{SPACE}faisan{ENTER}	0	le{SPACE}fazant{ENTER}	6518	de fazant
33	16:03:48	22	la{SPACE}belette{ENTER}	0	le{SPACE}bullet{ENTER}	6060	de wezel
33	16:03:48	23	le{SPACE}meneau{ENTER}	0	la{SPACE}minut{ENTER}	5191	de paal
33	16:03:48	24	le{SPACE}renard{ENTER}	0	le{SPACE}reinart{ENTER}	4288	de vos
34	15:35:15	1	la{SPACE}bedaine{ENTER}	0	le{SPACE}debaine{ENTER}	5379	de bierbuik
34	15:35:15	2	la{SPACE}peluche{ENTER}	0	la{SPACE}pelouse{ENTER}	3696	het pluisje
34	15:35:15	3	le{SPACE}recul{ENTER}	0	le{SPACE}reduire{ENTER}	6759	de teruggang
34	15:35:15	4	la{SPACE}pelouse{ENTER}	0	la{SPACE}penouse{ENTER}	16740	het gazon
34	15:35:15	5	le{SPACE}fenouil{ENTER}	0	le{SPACE}lamotte{ENTER}	20249	de venkel
34	15:35:15	6	la{SPACE}levrette{ENTER}	0	le{SPACE}lemotte{ENTER}	21242	de windhond
34	15:35:15	7	le{SPACE}reflet{ENTER}	1	le{SPACE}reflet{ENTER}	13641	de reflex
34	15:35:15	8	le{SPACE}requin{ENTER}	1	le{SPACE}requin{ENTER}	2768	de haai
34	15:35:15	9	la{SPACE}semoule{ENTER}	0	la{SPACE}{ENTER}	24514	de griesmeel
34	15:35:15	10	la{SPACE}chenille{ENTER}	0	le{SPACE}{ENTER}	24067	de rups
34	15:35:15	11	la{SPACE}menotte{ENTER}	0	le{SPACE}manotte{ENTER}	3368	het handje
34	15:35:15	12	le{SPACE}rebond{ENTER}	1	le{SPACE}rebond{ENTER}	8295	de terugstoot
34	15:35:15	13	le{SPACE}chenil{ENTER}	0	le{SPACE}{ENTER}	9695	de kennel
34	15:35:15	14	la{SPACE}reliure{ENTER}	0	le{SPACE}reliure{ENTER}	5663	de boekband
34	15:35:15	15	le{SPACE}recel{ENTER}	0	le{SPACE}redis{ENTER}	10493	de heling
34	15:35:15	16	le{SPACE}remous{ENTER}	0	le{SPACE}seduit{ENTER}	20051	de zuiging
34	15:35:15	17	le{SPACE}geni{SHIFT}evre{ENTER}	0	le{SPACE}genever{ENTER}	2509	de jeneverbes
34	15:35:15	18	le{SPACE}sevrage{ENTER}	1	le{SPACE}sevrage{ENTER}	3303	het onttrekken
34	15:35:15	19	la{SPACE}semelle{ENTER}	1	la{SPACE}semelle{ENTER}	4923	de schoenzool
34	15:35:15	20	la{SPACE}secousse{ENTER}	0	le{SPACE}secouse{ENTER}	2332	de ruk
34	15:35:15	21	le{SPACE}faisan{ENTER}	0	la{SPACE}faisan{ENTER}	5526	de fazant
34	15:35:15	22	la{SPACE}belette{ENTER}	0	le{SPACE}belette{ENTER}	2725	de wezel
34	15:35:15	23	le{SPACE}meneau{ENTER}	0	le{SPACE}maidant{ENTER}	19959	de paal
34	15:35:15	24	le{SPACE}renard{ENTER}	1	le{SPACE}renard{ENTER}	1735	de vos
35	13:40:54	1	la{SPACE}bedaine{ENTER}	0	de{ENTER}	31292	de bierbuik
35	13:40:54	2	la{SPACE}peluche{ENTER}	0	la{SPACE}pelouge{ENTER}	7373	het pluisje
35	13:40:54	3	le{SPACE}recul{ENTER}	0	le{SPACE}recage{ENTER}	12518	de teruggang
35	13:40:54	4	la{SPACE}pelouse{ENTER}	0	le{SPACE}pelonge{ENTER}	5965	het gazon
35	13:40:54	5	le{SPACE}fenouil{ENTER}	0	la{SPACE}fenouille{ENTER}	3244	de venkel
35	13:40:54	6	la{SPACE}levrette{ENTER}	0	le{SPACE}plenge{ENTER}	8414	de windhond
35	13:40:54	7	le{SPACE}reflet{ENTER}	0	le{SPACE}refle{ENTER}	13118	de reflex
35	13:40:54	8	le{SPACE}requin{ENTER}	0	le{SPACE}cernait{ENTER}	13339	de haai
35	13:40:54	9	la{SPACE}semoule{ENTER}	0	la{SPACE}semoul{ENTER}	8063	de griesmeel
35	13:40:54	10	la{SPACE}chenille{ENTER}	0	le{SPACE}penielle{ENTER}	15649	de rups
35	13:40:54	11	la{SPACE}menotte{ENTER}	0	la{SPACE}menot{ENTER}	3415	het handje
35	13:40:54	12	le{SPACE}rebond{ENTER}	0	le{SPACE}rebon{ENTER}	3183	de terugstoot
35	13:40:54	13	le{SPACE}chenil{ENTER}	0	la{SPACE}chenielle{ENTER}	8654	de kennel
35	13:40:54	14	la{SPACE}reliure{ENTER}	0	la{SPACE}levrais{ENTER}	4468	de boekband
35	13:40:54	15	le{SPACE}recel{ENTER}	0	d{ENTER}	966	de heling
35	13:40:54	16	le{SPACE}remous{ENTER}	0	{SHIFT}{?}{ENTER}	7623	de zuiging
35	13:40:54	17	le{SPACE}geni{SHIFT}evre{ENTER}	0	le{SPACE}jenevre{ENTER}	8455	de jeneverbes
35	13:40:54	18	le{SPACE}sevrage{ENTER}	0	{SHIFT}{?}{ENTER}	11844	het onttrekken
35	13:40:54	19	la{SPACE}semelle{ENTER}	0	le{SPACE}semelle{ENTER}	3099	de schoenzool
35	13:40:54	20	la{SPACE}secousse{ENTER}	0	{SHIFT}{?}{ENTER}	888	de ruk
35	13:40:54	21	le{SPACE}faisan{ENTER}	0	le{SPACE}fezant{ENTER}	8439	de fazant
35	13:40:54	22	la{SPACE}belette{ENTER}	0	{SHIFT}{?}{ENTER}	955	de wezel
35	13:40:54	23	le{SPACE}meneau{ENTER}	0	le{SPACE}menot{ENTER}	2206	de paal
35	13:40:54	24	le{SPACE}renard{ENTER}	0	le{SPACE}renart{ENTER}	5894	de vos
36	14:41:17	1	la{SPACE}bedaine{ENTER}	0	la{SPACE}bienerbe{ENTER}	12559	de bierbuik
36	14:41:17	2	la{SPACE}peluche{ENTER}	0	la{SPACE}pelousche{ENTER}	7488	het pluisje
36	14:41:17	3	le{SPACE}recul{ENTER}	0	la{SPACE}rebond{ENTER}	7329	de teruggang
36	14:41:17	4	la{SPACE}pelouse{ENTER}	0	la{SPACE}recluse{ENTER}	16289	het gazon
36	14:41:17	5	le{SPACE}fenouil{ENTER}	0	la{SPACE}mevrette{ENTER}	12468	de venkel
36	14:41:17	6	la{SPACE}levrette{ENTER}	0	la{SPACE}mevrette{ENTER}	12214	de windhond
36	14:41:17	7	le{SPACE}reflet{ENTER}	0	la{SPACE}reflec{ENTER}	9008	de reflex
36	14:41:17	8	le{SPACE}requin{ENTER}	0	la{SPACE}requin{ENTER}	6332	de haai
36	14:41:17	9	la{SPACE}semoule{ENTER}	0	la{SPACE}biernette{ENTER}	51104	de griesmeel
36	14:41:17	10	la{SPACE}chenille{ENTER}	0	la{SPACE}chennille{ENTER}	9176	de rups
36	14:41:17	11	la{SPACE}menotte{ENTER}	0	la{SPACE}mavrette{ENTER}	9989	het handje
36	14:41:17	12	le{SPACE}rebond{ENTER}	1	le{SPACE}rebond{ENTER}	10657	de terugstoot
36	14:41:17	13	le{SPACE}chenil{ENTER}	0	la{SPACE}chechenille{ENTER}	12627	de kennel
36	14:41:17	14	la{SPACE}reliure{ENTER}	0	la{SPACE}recluse{ENTER}	16724	de boekband
36	14:41:17	15	le{SPACE}recel{ENTER}	0	la{SPACE}relie{ENTER}	31687	de heling
36	14:41:17	16	le{SPACE}remous{ENTER}	0	le{SPACE}retrette{ENTER}	52210	de zuiging
36	14:41:17	17	le{SPACE}geni{SHIFT}evre{ENTER}	0	le{SPACE}j{SHIFT}Enerevge{ENTER}	23352	de jeneverbes
36	14:41:17	18	le{SPACE}sevrage{ENTER}	0	la{SPACE}sevrage{ENTER}	5260	het onttrekken
36	14:41:17	19	la{SPACE}semelle{ENTER}	0	la{SPACE}schmoulle{ENTER}	11568	de schoenzool
36	14:41:17	20	la{SPACE}secousse{ENTER}	0	la{SPACE}mevriette{ENTER}	43793	de ruk
36	14:41:17	21	le{SPACE}faisan{ENTER}	0	le{SPACE}f{SHIFT}Esant{ENTER}	10073	de fazant
36	14:41:17	22	la{SPACE}belette{ENTER}	0	le{SPACE}chevrage{ENTER}	48032	de wezel
36	14:41:17	23	le{SPACE}meneau{ENTER}	0	le{SPACE}mameurs{ENTER}	13985	de paal
36	14:41:17	24	le{SPACE}renard{ENTER}	1	le{SPACE}renard{ENTER}	5276	de vos
38	15:12:43	1	la{SPACE}bedaine{ENTER}	0	la{SPACE}benotte{ENTER}	8040	de bierbuik
38	15:12:43	2	la{SPACE}peluche{ENTER}	0	l{LEFTARROW}{LEFTARROW}{LEFTARROW}{LEFTARROW}{LEFTARROW}a{SPACE}plouche{ENTER}	16064	het pluisje
38	15:12:43	3	le{SPACE}recul{ENTER}	0	le{SPACE}retret{ENTER}	10836	de teruggang
38	15:12:43	4	la{SPACE}pelouse{ENTER}	0	la{SPACE}palouche{ENTER}	4544	het gazon
38	15:12:43	5	le{SPACE}fenouil{ENTER}	0	le{SPACE}menousse{ENTER}	10930	de venkel
38	15:12:43	6	la{SPACE}levrette{ENTER}	0	la{SPACE}farrent{ENTER}	15023	de windhond
38	15:12:43	7	le{SPACE}reflet{ENTER}	1	le{SPACE}reflet{ENTER}	4673	de reflex
38	15:12:43	8	le{SPACE}requin{ENTER}	0	le{SPACE}renois{ENTER}	6987	de haai
38	15:12:43	9	la{SPACE}semoule{ENTER}	0	le{SPACE}semousse{ENTER}	5437	de griesmeel
38	15:12:43	10	la{SPACE}chenille{ENTER}	0	le{SPACE}renult{ENTER}	4516	de rups
38	15:12:43	11	la{SPACE}menotte{ENTER}	0	le{SPACE}menotte{ENTER}	2590	het handje
38	15:12:43	12	le{SPACE}rebond{ENTER}	1	le{SPACE}rebond{ENTER}	4082	de terugstoot
38	15:12:43	13	le{SPACE}chenil{ENTER}	0	le{SPACE}chennil{ENTER}	4886	de kennel
38	15:12:43	14	la{SPACE}reliure{ENTER}	0	la{SPACE}semousse{ENTER}	4625	de boekband
38	15:12:43	15	le{SPACE}recel{ENTER}	0	le{SPACE}renuit{ENTER}	16458	de heling
38	15:12:43	16	le{SPACE}remous{ENTER}	1	le{SPACE}remous{ENTER}	10236	de zuiging
38	15:12:43	17	le{SPACE}geni{SHIFT}evre{ENTER}	0	le{SPACE}gen{SHIFT}Ervieve{ENTER}	9372	de jeneverbes
38	15:12:43	18	le{SPACE}sevrage{ENTER}	0	le{SPACE}riplet{ENTER}	11329	het onttrekken
38	15:12:43	19	la{SPACE}semelle{ENTER}	0	le{SPACE}senousse{ENTER}	3945	de schoenzool
38	15:12:43	20	la{SPACE}secousse{ENTER}	0	le{SPACE}reflet{ENTER}	6930	de ruk
38	15:12:43	21	le{SPACE}faisan{ENTER}	0	la{SPACE}fasant{ENTER}	4071	de fazant
38	15:12:43	22	la{SPACE}belette{ENTER}	0	le{SPACE}rezoi{ENTER}	13126	de wezel
38	15:12:43	23	le{SPACE}meneau{ENTER}	1	le{SPACE}meneau{ENTER}	6426	de paal
38	15:12:43	24	le{SPACE}renard{ENTER}	1	le{SPACE}renard{ENTER}	2709	de vos
4	14:51:17	1	la{SPACE}bedaine{ENTER}	0	{SHIFT}la{SPACE}bedaine{ENTER}	6605	de bierbuik
4	14:51:17	2	la{SPACE}peluche{ENTER}	0	le{SPACE}plouche{ENTER}	4205	het pluisje
4	14:51:17	3	le{SPACE}recul{ENTER}	0	le{SPACE}rebond{ENTER}	4440	de teruggang
4	14:51:17	4	la{SPACE}pelouse{ENTER}	0	{ENTER}	4113	het gazon
4	14:51:17	5	le{SPACE}fenouil{ENTER}	0	le{SPACE}fetoul{ENTER}	4650	de venkel
4	14:51:17	6	la{SPACE}levrette{ENTER}	0	{ENTER}	3543	de windhond
4	14:51:17	7	le{SPACE}reflet{ENTER}	0	le{SPACE}refl{SHIFT}Ex{ENTER}	6288	de reflex
4	14:51:17	8	le{SPACE}requin{ENTER}	0	le{SPACE}renard{ENTER}	6407	de haai
4	14:51:17	9	la{SPACE}semoule{ENTER}	0	{ENTER}	1097	de griesmeel
4	14:51:17	10	la{SPACE}chenille{ENTER}	0	{ENTER}	4510	de rups
4	14:51:17	11	la{SPACE}menotte{ENTER}	0	la{SPACE}menousse{ENTER}	6476	het handje
4	14:51:17	12	le{SPACE}rebond{ENTER}	1	le{SPACE}rebond{ENTER}	6100	de terugstoot
4	14:51:17	13	le{SPACE}chenil{ENTER}	0	le{SPACE}chenille{ENTER}	3496	de kennel
4	14:51:17	14	la{SPACE}reliure{ENTER}	0	{ENTER}	2821	de boekband
4	14:51:17	15	le{SPACE}recel{ENTER}	0	le{SPACE}recul{ENTER}	3376	de heling
4	14:51:17	16	le{SPACE}remous{ENTER}	0	la{SPACE}secousse{ENTER}	4132	de zuiging
4	14:51:17	17	le{SPACE}geni{SHIFT}evre{ENTER}	0	les{SPACE}g{SHIFT}En{SHIFT}Evres{ENTER}	9933	de jeneverbes
4	14:51:17	18	le{SPACE}sevrage{ENTER}	0	la{SPACE}secousse{ENTER}	2567	het onttrekken
4	14:51:17	19	la{SPACE}semelle{ENTER}	0	{ENTER}	583	de schoenzool
4	14:51:17	20	la{SPACE}secousse{ENTER}	0	{ENTER}	5278	de ruk
4	14:51:17	21	le{SPACE}faisan{ENTER}	0	la{SPACE}fezant{ENTER}	6867	de fazant
4	14:51:17	22	la{SPACE}belette{ENTER}	0	{ENTER}	1544	de wezel
4	14:51:17	23	le{SPACE}meneau{ENTER}	0	la{SPACE}pole{ENTER}	5242	de paal
4	14:51:17	24	le{SPACE}renard{ENTER}	1	le{SPACE}renard{ENTER}	1754	de vos
40	14:15:42	1	la{SPACE}bedaine{ENTER}	0	le{SPACE}bedan{ENTER}	9644	de bierbuik
40	14:15:42	2	la{SPACE}peluche{ENTER}	0	le{SPACE}pelouse{ENTER}	5533	het pluisje
40	14:15:42	3	le{SPACE}recul{ENTER}	0	le{SPACE}recule{ENTER}	5252	de teruggang
40	14:15:42	4	la{SPACE}pelouse{ENTER}	0	le{SPACE}pelouse{ENTER}	5529	het gazon
40	14:15:42	5	le{SPACE}fenouil{ENTER}	0	{SHIFT}{?}{?}{ENTER}	1711	de venkel
40	14:15:42	6	la{SPACE}levrette{ENTER}	0	le{SPACE}refrete{ENTER}	13524	de windhond
40	14:15:42	7	le{SPACE}reflet{ENTER}	0	le{SPACE}refleche{ENTER}	6221	de reflex
40	14:15:42	8	le{SPACE}requin{ENTER}	0	le{SPACE}{.}{.}{.}{ENTER}	13937	de haai
40	14:15:42	9	la{SPACE}semoule{ENTER}	0	le{SPACE}menot{ENTER}	14545	de griesmeel
40	14:15:42	10	la{SPACE}chenille{ENTER}	0	le{SPACE}menote{ENTER}	2584	de rups
40	14:15:42	11	la{SPACE}menotte{ENTER}	0	le{SPACE}menote{ENTER}	4794	het handje
40	14:15:42	12	le{SPACE}rebond{ENTER}	0	le{SPACE}recule{ENTER}	2352	de terugstoot
40	14:15:42	13	le{SPACE}chenil{ENTER}	0	le{SPACE}cheville{ENTER}	4390	de kennel
40	14:15:42	14	la{SPACE}reliure{ENTER}	0	{.}{.}{.}{ENTER}	1050	de boekband
40	14:15:42	15	le{SPACE}recel{ENTER}	0	le{SPACE}resel{ENTER}	6169	de heling
40	14:15:42	16	le{SPACE}remous{ENTER}	0	le{SPACE}{.}{.}{.}{ENTER}	5734	de zuiging
40	14:15:42	17	le{SPACE}geni{SHIFT}evre{ENTER}	0	le{SPACE}{.}{.}{.}{ENTER}	13388	de jeneverbes
40	14:15:42	18	le{SPACE}sevrage{ENTER}	0	le{SPACE}reculer{ENTER}	8671	het onttrekken
40	14:15:42	19	la{SPACE}semelle{ENTER}	0	{SPACE}le{SPACE}semele{ENTER}	6296	de schoenzool
40	14:15:42	20	la{SPACE}secousse{ENTER}	0	la{SPACE}repouche{ENTER}	5744	de ruk
40	14:15:42	21	le{SPACE}faisan{ENTER}	0	le{SPACE}fazante{ENTER}	8115	de fazant
40	14:15:42	22	la{SPACE}belette{ENTER}	0	le{SPACE}{.}{.}{ENTER}	3698	de wezel
40	14:15:42	23	le{SPACE}meneau{ENTER}	0	le{SPACE}{.}{.}{ENTER}	3605	de paal
40	14:15:42	24	le{SPACE}renard{ENTER}	1	le{SPACE}renard{ENTER}	2907	de vos
41	13:45:30	1	la{SPACE}bedaine{ENTER}	0	{SPACE}{ENTER}	26821	de bierbuik
41	13:45:30	2	la{SPACE}peluche{ENTER}	0	le{SPACE}pluche{ENTER}	11855	het pluisje
41	13:45:30	3	le{SPACE}recul{ENTER}	0	le{SPACE}recole{ENTER}	8265	de teruggang
41	13:45:30	4	la{SPACE}pelouse{ENTER}	0	{SPACE}{ENTER}	22338	het gazon
41	13:45:30	5	le{SPACE}fenouil{ENTER}	0	la{SPACE}frier{ENTER}	13324	de venkel
41	13:45:30	6	la{SPACE}levrette{ENTER}	0	le{SPACE}schmien{ENTER}	6876	de windhond
41	13:45:30	7	le{SPACE}reflet{ENTER}	0	le{SPACE}reflex{ENTER}	2919	de reflex
41	13:45:30	8	le{SPACE}requin{ENTER}	0	{SPACE}{SHIFT}{ENTER}	23430	de haai
41	13:45:30	9	la{SPACE}semoule{ENTER}	0	le{SPACE}{ENTER}	23145	de griesmeel
41	13:45:30	10	la{SPACE}chenille{ENTER}	0	la{ENTER}	22596	de rups
41	13:45:30	11	la{SPACE}menotte{ENTER}	0	le{SPACE}mnon{ENTER}	6630	het handje
41	13:45:30	12	le{SPACE}rebond{ENTER}	0	le{SPACE}retrail{ENTER}	9430	de terugstoot
41	13:45:30	13	le{SPACE}chenil{ENTER}	0	le{SPACE}{ENTER}	21837	de kennel
41	13:45:30	14	la{SPACE}reliure{ENTER}	0	la{SPACE}boellet{ENTER}	10745	de boekband
41	13:45:30	15	le{SPACE}recel{ENTER}	0	la{SPACE}moiner{ENTER}	18287	de heling
41	13:45:30	16	le{SPACE}remous{ENTER}	0	{SPACE}{ENTER}	2342	de zuiging
41	13:45:30	17	le{SPACE}geni{SHIFT}evre{ENTER}	0	le{SPACE}jenever{ENTER}	6052	de jeneverbes
41	13:45:30	18	le{SPACE}sevrage{ENTER}	0	le{SPACE}trouver{ENTER}	16764	het onttrekken
41	13:45:30	19	la{SPACE}semelle{ENTER}	0	le{ENTER}	34413	de schoenzool
41	13:45:30	20	la{SPACE}secousse{ENTER}	0	{SPACE}{ENTER}	4033	de ruk
41	13:45:30	21	le{SPACE}faisan{ENTER}	0	le{SPACE}fazant{ENTER}	4543	de fazant
41	13:45:30	22	la{SPACE}belette{ENTER}	0	la{SPACE}revour{ENTER}	10725	de wezel
41	13:45:30	23	le{SPACE}meneau{ENTER}	0	le{ENTER}	16503	de paal
41	13:45:30	24	le{SPACE}renard{ENTER}	0	la{SPACE}levant{ENTER}	26184	de vos
42	10:54:04	1	la{SPACE}bedaine{ENTER}	0	le{SPACE}bedain{ENTER}	3070	de bierbuik
42	10:54:04	2	la{SPACE}peluche{ENTER}	0	la{SPACE}pluise{ENTER}	7922	het pluisje
42	10:54:04	3	le{SPACE}recul{ENTER}	0	le{SPACE}recurs{ENTER}	8017	de teruggang
42	10:54:04	4	la{SPACE}pelouse{ENTER}	0	la{SPACE}plamuse{ENTER}	14403	het gazon
42	10:54:04	5	le{SPACE}fenouil{ENTER}	0	{SPACE}feneuille{ENTER}	3449	de venkel
42	10:54:04	6	la{SPACE}levrette{ENTER}	0	le{SPACE}seismal{ENTER}	28137	de windhond
42	10:54:04	7	le{SPACE}reflet{ENTER}	0	le{SPACE}reflex{ENTER}	8774	de reflex
42	10:54:04	8	le{SPACE}requin{ENTER}	0	l{'}orcan{ENTER}	18981	de haai
42	10:54:04	9	la{SPACE}semoule{ENTER}	0	le{SPACE}semouile{ENTER}	6873	de griesmeel
42	10:54:04	10	la{SPACE}chenille{ENTER}	0	le{SPACE}asfi{ENTER}	18986	de rups
42	10:54:04	11	la{SPACE}menotte{ENTER}	0	le{SPACE}amnot{ENTER}	5980	het handje
42	10:54:04	12	le{SPACE}rebond{ENTER}	0	{SHIFT}{?}{ENTER}	7744	de terugstoot
42	10:54:04	13	le{SPACE}chenil{ENTER}	0	le{SPACE}seuvra{ENTER}	5912	de kennel
42	10:54:04	14	la{SPACE}reliure{ENTER}	0	{SPACE}{LEFTARROW}{LEFTARROW}le{SPACE}rouleur{ENTER}	21383	de boekband
42	10:54:04	15	le{SPACE}recel{ENTER}	0	le{SPACE}surcas{ENTER}	7446	de heling
42	10:54:04	16	le{SPACE}remous{ENTER}	0	{SHIFT}{?}{ENTER}	993	de zuiging
42	10:54:04	17	le{SPACE}geni{SHIFT}evre{ENTER}	0	le{SPACE}jeuneviere{ENTER}	18429	de jeneverbes
42	10:54:04	18	le{SPACE}sevrage{ENTER}	0	{SHIFT}{SHIFT}{?}{ENTER}	16021	het onttrekken
42	10:54:04	19	la{SPACE}semelle{ENTER}	0	le{SPACE}sumas{ENTER}	7997	de schoenzool
42	10:54:04	20	la{SPACE}secousse{ENTER}	0	le{SPACE}excus{ENTER}	5588	de ruk
42	10:54:04	21	le{SPACE}faisan{ENTER}	0	le{SPACE}fazant{ENTER}	5125	de fazant
42	10:54:04	22	la{SPACE}belette{ENTER}	0	{SHIFT}Le{SPACE}aitrenent{ENTER}	23942	de wezel
42	10:54:04	23	le{SPACE}meneau{ENTER}	0	le{SPACE}munou{ENTER}	3985	de paal
42	10:54:04	24	le{SPACE}renard{ENTER}	0	le{SPACE}reynaert{ENTER}	4639	de vos
43	13:12:29	1	la{SPACE}bedaine{ENTER}	0	{SPACE}le{SPACE}abd{SHIFT}En{ENTER}	5102	de bierbuik
43	13:12:29	2	la{SPACE}peluche{ENTER}	0	le{SPACE}plouze{ENTER}	7780	het pluisje
43	13:12:29	3	le{SPACE}recul{ENTER}	0	le{SPACE}recule{ENTER}	3728	de teruggang
43	13:12:29	4	la{SPACE}pelouse{ENTER}	0	le{SPACE}pelouse{ENTER}	7554	het gazon
43	13:12:29	5	le{SPACE}fenouil{ENTER}	0	la{SPACE}fenouille{ENTER}	2767	de venkel
43	13:12:29	6	la{SPACE}levrette{ENTER}	0	le{SPACE}lewraite{ENTER}	4513	de windhond
43	13:12:29	7	le{SPACE}reflet{ENTER}	0	le{SPACE}reflex{ENTER}	1853	de reflex
43	13:12:29	8	le{SPACE}requin{ENTER}	0	le{SPACE}roquin{ENTER}	2609	de haai
43	13:12:29	9	la{SPACE}semoule{ENTER}	0	le{SPACE}semille{ENTER}	8116	de griesmeel
43	13:12:29	10	la{SPACE}chenille{ENTER}	0	le{SPACE}chenille{ENTER}	5948	de rups
43	13:12:29	11	la{SPACE}menotte{ENTER}	0	l{'}amnot{ENTER}	4869	het handje
43	13:12:29	12	le{SPACE}rebond{ENTER}	0	le{SPACE}rebon{ENTER}	2968	de terugstoot
43	13:12:29	13	le{SPACE}chenil{ENTER}	0	le{SPACE}chenille{ENTER}	7280	de kennel
43	13:12:29	14	la{SPACE}reliure{ENTER}	0	le{SPACE}reliure{ENTER}	2930	de boekband
43	13:12:29	15	le{SPACE}recel{ENTER}	0	le{SPACE}rochain{ENTER}	10073	de heling
43	13:12:29	16	le{SPACE}remous{ENTER}	0	le{SPACE}retrait{ENTER}	8267	de zuiging
43	13:12:29	17	le{SPACE}geni{SHIFT}evre{ENTER}	0	le{SPACE}jenevre{ENTER}	4480	de jeneverbes
43	13:12:29	18	le{SPACE}sevrage{ENTER}	0	le{SPACE}repule{ENTER}	2463	het onttrekken
43	13:12:29	19	la{SPACE}semelle{ENTER}	0	le{SPACE}sem{SHIFT}Elle{ENTER}	10430	de schoenzool
43	13:12:29	20	la{SPACE}secousse{ENTER}	0	le{SPACE}cotis{ENTER}	15352	de ruk
43	13:12:29	21	le{SPACE}faisan{ENTER}	0	le{SPACE}fazant{ENTER}	1621	de fazant
43	13:12:29	22	la{SPACE}belette{ENTER}	0	le{SPACE}bull{SHIFT}Et{ENTER}	4706	de wezel
43	13:12:29	23	le{SPACE}meneau{ENTER}	0	le{SPACE}menot{ENTER}	9017	de paal
43	13:12:29	24	le{SPACE}renard{ENTER}	0	le{SPACE}reinar{ENTER}	5340	de vos
44	10:17:52	1	la{SPACE}bedaine{ENTER}	0	le{SPACE}seman{ENTER}	10279	de bierbuik
44	10:17:52	2	la{SPACE}peluche{ENTER}	0	pelouche{ENTER}	5431	het pluisje
44	10:17:52	3	le{SPACE}recul{ENTER}	0	le{SPACE}rebon{ENTER}	7790	de teruggang
44	10:17:52	4	la{SPACE}pelouse{ENTER}	0	la{SPACE}palouche{ENTER}	5346	het gazon
44	10:17:52	5	le{SPACE}fenouil{ENTER}	0	la{SPACE}fenoulle{ENTER}	5446	de venkel
44	10:17:52	6	la{SPACE}levrette{ENTER}	1	la{SPACE}levrette{ENTER}	4118	de windhond
44	10:17:52	7	le{SPACE}reflet{ENTER}	0	le{SPACE}refl{SHIFT}E{ENTER}	7997	de reflex
44	10:17:52	8	le{SPACE}requin{ENTER}	0	le{SPACE}rexair{ENTER}	25415	de haai
44	10:17:52	9	la{SPACE}semoule{ENTER}	0	la{SPACE}semouse{ENTER}	2162	de griesmeel
44	10:17:52	10	la{SPACE}chenille{ENTER}	0	{ENTER}	3775	de rups
44	10:17:52	11	la{SPACE}menotte{ENTER}	0	la{SPACE}sement{ENTER}	6989	het handje
44	10:17:52	12	le{SPACE}rebond{ENTER}	1	le{SPACE}rebond{ENTER}	3924	de terugstoot
44	10:17:52	13	le{SPACE}chenil{ENTER}	0	la{SPACE}chenille{ENTER}	4114	de kennel
44	10:17:52	14	la{SPACE}reliure{ENTER}	0	{SHIFT}{?}{ENTER}	2493	de boekband
44	10:17:52	15	le{SPACE}recel{ENTER}	0	la{SPACE}recel{ENTER}	3148	de heling
44	10:17:52	16	le{SPACE}remous{ENTER}	0	la{SPACE}secousse{ENTER}	4652	de zuiging
44	10:17:52	17	le{SPACE}geni{SHIFT}evre{ENTER}	0	a{SPACE}genievere{ENTER}	4202	de jeneverbes
44	10:17:52	18	le{SPACE}sevrage{ENTER}	0	{SHIFT}{?}{ENTER}	515	het onttrekken
44	10:17:52	19	la{SPACE}semelle{ENTER}	0	la{SPACE}semousse{ENTER}	4323	de schoenzool
44	10:17:52	20	la{SPACE}secousse{ENTER}	0	{SHIFT}la{SPACE}secousse{ENTER}	4035	de ruk
44	10:17:52	21	le{SPACE}faisan{ENTER}	0	le{SPACE}fezant{ENTER}	6280	de fazant
44	10:17:52	22	la{SPACE}belette{ENTER}	0	bevrette{ENTER}	6603	de wezel
44	10:17:52	23	le{SPACE}meneau{ENTER}	0	{SHIFT}{?}{ENTER}	1796	de paal
44	10:17:52	24	le{SPACE}renard{ENTER}	1	le{SPACE}renard{ENTER}	2494	de vos
45	15:14:02	1	la{SPACE}bedaine{ENTER}	0	le{SPACE}berbon{ENTER}	4166	de bierbuik
45	15:14:02	2	la{SPACE}peluche{ENTER}	0	la{SPACE}puluche{ENTER}	4653	het pluisje
45	15:14:02	3	le{SPACE}recul{ENTER}	0	le{SPACE}menot{ENTER}	13453	de teruggang
45	15:14:02	4	la{SPACE}pelouse{ENTER}	0	la{SPACE}plouche{ENTER}	4809	het gazon
45	15:14:02	5	le{SPACE}fenouil{ENTER}	0	la{SPACE}feneille{ENTER}	7396	de venkel
45	15:14:02	6	la{SPACE}levrette{ENTER}	0	la{SPACE}mefret{ENTER}	5930	de windhond
45	15:14:02	7	le{SPACE}reflet{ENTER}	0	{SPACE}le{SPACE}reflet{ENTER}	5900	de reflex
45	15:14:02	8	le{SPACE}requin{ENTER}	0	l{SHIFT}Arcon{ENTER}	3809	de haai
45	15:14:02	9	la{SPACE}semoule{ENTER}	0	la{SPACE}resmoule{ENTER}	3537	de griesmeel
45	15:14:02	10	la{SPACE}chenille{ENTER}	0	la{SPACE}schniie{ENTER}	2297	de rups
45	15:14:02	11	la{SPACE}menotte{ENTER}	0	l{SHIFT}Amnot{ENTER}	2276	het handje
45	15:14:02	12	le{SPACE}rebond{ENTER}	0	le{SPACE}rebon{ENTER}	1945	de terugstoot
45	15:14:02	13	le{SPACE}chenil{ENTER}	0	la{SPACE}schnille{ENTER}	4072	de kennel
45	15:14:02	14	la{SPACE}reliure{ENTER}	0	le{SPACE}refrier{ENTER}	3408	de boekband
45	15:14:02	15	le{SPACE}recel{ENTER}	0	la{SPACE}menout{ENTER}	7724	de heling
45	15:14:02	16	le{SPACE}remous{ENTER}	0	la{SPACE}droulle{ENTER}	13409	de zuiging
45	15:14:02	17	le{SPACE}geni{SHIFT}evre{ENTER}	0	la{SPACE}jniere{ENTER}	4227	de jeneverbes
45	15:14:02	18	le{SPACE}sevrage{ENTER}	0	la{SPACE}surface{ENTER}	8705	het onttrekken
45	15:14:02	19	la{SPACE}semelle{ENTER}	0	la{SPACE}smelle{ENTER}	3142	de schoenzool
45	15:14:02	20	la{SPACE}secousse{ENTER}	0	le{SPACE}mescous{ENTER}	2459	de ruk
45	15:14:02	21	le{SPACE}faisan{ENTER}	0	le{SPACE}phasant{ENTER}	4053	de fazant
45	15:14:02	22	la{SPACE}belette{ENTER}	0	la{SPACE}bullet{ENTER}	2375	de wezel
45	15:14:02	23	le{SPACE}meneau{ENTER}	0	la{SPACE}menot{ENTER}	2803	de paal
45	15:14:02	24	le{SPACE}renard{ENTER}	0	le{SPACE}reinard{ENTER}	6860	de vos
46	9:49:41	1	la{SPACE}bedaine{ENTER}	0	de{SPACE}bierbuik{ENTER}	9413	de bierbuik
46	9:49:41	2	la{SPACE}peluche{ENTER}	1	la{SPACE}peluche{ENTER}	14696	het pluisje
46	9:49:41	3	le{SPACE}recul{ENTER}	1	le{SPACE}recul{ENTER}	6944	de teruggang
46	9:49:41	4	la{SPACE}pelouse{ENTER}	1	la{SPACE}pelouse{ENTER}	6553	het gazon
46	9:49:41	5	le{SPACE}fenouil{ENTER}	0	la{SPACE}fenouille{ENTER}	4140	de venkel
46	9:49:41	6	la{SPACE}levrette{ENTER}	1	la{SPACE}levrette{ENTER}	4082	de windhond
46	9:49:41	7	le{SPACE}reflet{ENTER}	1	le{SPACE}reflet{ENTER}	3136	de reflex
46	9:49:41	8	le{SPACE}requin{ENTER}	1	le{SPACE}requin{ENTER}	3531	de haai
46	9:49:41	9	la{SPACE}semoule{ENTER}	0	le{SPACE}remous{ENTER}	24041	de griesmeel
46	9:49:41	10	la{SPACE}chenille{ENTER}	1	la{SPACE}chenille{ENTER}	5844	de rups
46	9:49:41	11	la{SPACE}menotte{ENTER}	1	la{SPACE}menotte{ENTER}	4287	het handje
46	9:49:41	12	le{SPACE}rebond{ENTER}	1	le{SPACE}rebond{ENTER}	4188	de terugstoot
46	9:49:41	13	le{SPACE}chenil{ENTER}	1	le{SPACE}chenil{ENTER}	5580	de kennel
46	9:49:41	14	la{SPACE}reliure{ENTER}	0	le{SPACE}relieu{ENTER}	12696	de boekband
46	9:49:41	15	le{SPACE}recel{ENTER}	1	le{SPACE}recel{ENTER}	9601	de heling
46	9:49:41	16	le{SPACE}remous{ENTER}	1	le{SPACE}remous{ENTER}	20981	de zuiging
46	9:49:41	17	le{SPACE}geni{SHIFT}evre{ENTER}	0	la{SPACE}geni{SHIFT}Evre{ENTER}	7943	de jeneverbes
46	9:49:41	18	le{SPACE}sevrage{ENTER}	0	le{SPACE}savrage{ENTER}	4553	het onttrekken
46	9:49:41	19	la{SPACE}semelle{ENTER}	0	le{SPACE}sem{SHIFT}El{ENTER}	29483	de schoenzool
46	9:49:41	20	la{SPACE}secousse{ENTER}	0	la{SPACE}seccouse{ENTER}	10913	de ruk
46	9:49:41	21	le{SPACE}faisan{ENTER}	0	le{SPACE}fasant{ENTER}	14491	de fazant
46	9:49:41	22	la{SPACE}belette{ENTER}	0	le{SPACE}boulet{ENTER}	22159	de wezel
46	9:49:41	23	le{SPACE}meneau{ENTER}	1	le{SPACE}meneau{ENTER}	2781	de paal
46	9:49:41	24	le{SPACE}renard{ENTER}	1	le{SPACE}renard{ENTER}	2526	de vos
47	9:35:37	1	la{SPACE}bedaine{ENTER}	0	le{SPACE}{SHIFT}{SHIFT}p{SHIFT}ed{SHIFT}Ele{ENTER}	8468	de bierbuik
47	9:35:37	2	la{SPACE}peluche{ENTER}	0	la{SPACE}pluche{ENTER}	2887	het pluisje
47	9:35:37	3	le{SPACE}recul{ENTER}	0	le{SPACE}recule{ENTER}	5314	de teruggang
47	9:35:37	4	la{SPACE}pelouse{ENTER}	0	l{'}embours{ENTER}	12821	het gazon
47	9:35:37	5	le{SPACE}fenouil{ENTER}	0	la{SPACE}fouille{ENTER}	5014	de venkel
47	9:35:37	6	la{SPACE}levrette{ENTER}	0	le{SPACE}levrette{ENTER}	14885	de windhond
47	9:35:37	7	le{SPACE}reflet{ENTER}	0	le{SPACE}r{SHIFT}Efleche{ENTER}	9042	de reflex
47	9:35:37	8	le{SPACE}requin{ENTER}	0	la{SPACE}bullet{ENTER}	35985	de haai
47	9:35:37	9	la{SPACE}semoule{ENTER}	0	le{SPACE}smouche{ENTER}	11400	de griesmeel
47	9:35:37	10	la{SPACE}chenille{ENTER}	0	l{LEFTARROW}a{SPACE}chnielle{ENTER}	22916	de rups
47	9:35:37	11	la{SPACE}menotte{ENTER}	0	le{SPACE}men{SHIFT}Ot{ENTER}	4742	het handje
47	9:35:37	12	le{SPACE}rebond{ENTER}	0	le{SPACE}rembours{ENTER}	2990	de terugstoot
47	9:35:37	13	le{SPACE}chenil{ENTER}	0	la{SPACE}chennielle{ENTER}	7145	de kennel
47	9:35:37	14	la{SPACE}reliure{ENTER}	0	le{SPACE}men{SHIFT}O{SHIFT}t{ENTER}	22788	de boekband
47	9:35:37	15	le{SPACE}recel{ENTER}	0	le{SPACE}recule{ENTER}	14106	de heling
47	9:35:37	16	le{SPACE}remous{ENTER}	0	le{SPACE}recule{ENTER}	7702	de zuiging
47	9:35:37	17	le{SPACE}geni{SHIFT}evre{ENTER}	0	{SPACE}la{SPACE}jambours{ENTER}	16577	de jeneverbes
47	9:35:37	18	le{SPACE}sevrage{ENTER}	0	{SPACE}le{SPACE}recule{ENTER}	16998	het onttrekken
47	9:35:37	19	la{SPACE}semelle{ENTER}	0	le{SPACE}renard{ENTER}	38497	de schoenzool
47	9:35:37	20	la{SPACE}secousse{ENTER}	0	le{SPACE}rembours{ENTER}	2485	de ruk
47	9:35:37	21	le{SPACE}faisan{ENTER}	0	le{SPACE}fazant{ENTER}	7499	de fazant
47	9:35:37	22	la{SPACE}belette{ENTER}	0	{SHIFT}Le{SPACE}bullet{ENTER}	1917	de wezel
47	9:35:37	23	le{SPACE}meneau{ENTER}	0	{SHIFT}le{SPACE}mout{ENTER}	17232	de paal
47	9:35:37	24	le{SPACE}renard{ENTER}	1	le{SPACE}renard{ENTER}	2243	de vos
49	11:48:47	1	la{SPACE}bedaine{ENTER}	0	la{SPACE}bedem{ENTER}	4975	de bierbuik
49	11:48:47	2	la{SPACE}peluche{ENTER}	0	{SPACE}la{SPACE}pl{SHIFT}Uche{ENTER}	8396	het pluisje
49	11:48:47	3	le{SPACE}recul{ENTER}	0	le{SPACE}rec{SHIFT}Ule{ENTER}	11884	de teruggang
49	11:48:47	4	la{SPACE}pelouse{ENTER}	0	la{SPACE}pelouze{ENTER}	8245	het gazon
49	11:48:47	5	le{SPACE}fenouil{ENTER}	0	la{SPACE}venuille{ENTER}	8117	de venkel
49	11:48:47	6	la{SPACE}levrette{ENTER}	0	la{SPACE}bedette{ENTER}	11183	de windhond
49	11:48:47	7	le{SPACE}reflet{ENTER}	0	la{SPACE}flex{ENTER}	6932	de reflex
49	11:48:47	8	le{SPACE}requin{ENTER}	0	le{SPACE}recard{ENTER}	11198	de haai
49	11:48:47	9	la{SPACE}semoule{ENTER}	0	la{SPACE}semoulle{ENTER}	7852	de griesmeel
49	11:48:47	10	la{SPACE}chenille{ENTER}	0	le{SPACE}chie{ENTER}	3358	de rups
49	11:48:47	11	la{SPACE}menotte{ENTER}	0	le{SPACE}menot{ENTER}	2270	het handje
49	11:48:47	12	le{SPACE}rebond{ENTER}	0	le{SPACE}recule{ENTER}	8954	de terugstoot
49	11:48:47	13	le{SPACE}chenil{ENTER}	0	le{SPACE}chiel{ENTER}	10625	de kennel
49	11:48:47	14	la{SPACE}reliure{ENTER}	0	la{SPACE}{ENTER}	15581	de boekband
49	11:48:47	15	le{SPACE}recel{ENTER}	0	le{SPACE}semouge{ENTER}	7710	de heling
49	11:48:47	16	le{SPACE}remous{ENTER}	0	le{SPACE}rebon{ENTER}	7366	de zuiging
49	11:48:47	17	le{SPACE}geni{SHIFT}evre{ENTER}	0	le{SPACE}jenevre{ENTER}	3433	de jeneverbes
49	11:48:47	18	le{SPACE}sevrage{ENTER}	0	le{SPACE}sauvage{ENTER}	3465	het onttrekken
49	11:48:47	19	la{SPACE}semelle{ENTER}	0	la{SPACE}smeille{ENTER}	6605	de schoenzool
49	11:48:47	20	la{SPACE}secousse{ENTER}	0	le{SPACE}re{ENTER}	7111	de ruk
49	11:48:47	21	le{SPACE}faisan{ENTER}	0	le{SPACE}fazant{ENTER}	3460	de fazant
49	11:48:47	22	la{SPACE}belette{ENTER}	0	la{SPACE}smette{ENTER}	11023	de wezel
49	11:48:47	23	le{SPACE}meneau{ENTER}	0	le{SPACE}penol{ENTER}	9642	de paal
49	11:48:47	24	le{SPACE}renard{ENTER}	0	le{SPACE}reinart{ENTER}	4300	de vos
5	16:23:35	1	la{SPACE}bedaine{ENTER}	0	la{ENTER}	20382	de bierbuik
5	16:23:35	2	la{SPACE}peluche{ENTER}	0	la{SPACE}po{LEFTARROW}{LEFTARROW}{LEFTARROW}{LEFTARROW}{LEFTARROW}{SHIFT}Uloese{ENTER}	18866	het pluisje
5	16:23:35	3	le{SPACE}recul{ENTER}	0	le{SPACE}rebound{ENTER}	8478	de teruggang
5	16:23:35	4	la{SPACE}pelouse{ENTER}	0	le{SPACE}{ENTER}	16366	het gazon
5	16:23:35	5	le{SPACE}fenouil{ENTER}	0	{ENTER}	41867	de venkel
5	16:23:35	6	la{SPACE}levrette{ENTER}	0	le{SPACE}chouf{ENTER}	6925	de windhond
5	16:23:35	7	le{SPACE}reflet{ENTER}	0	le{SPACE}reflex{ENTER}	3817	de reflex
5	16:23:35	8	le{SPACE}requin{ENTER}	0	{ENTER}	732	de haai
5	16:23:35	9	la{SPACE}semoule{ENTER}	0	la{SPACE}soumelle{ENTER}	9715	de griesmeel
5	16:23:35	10	la{SPACE}chenille{ENTER}	0	la{SPACE}recqe{ENTER}	12306	de rups
5	16:23:35	11	la{SPACE}menotte{ENTER}	0	{ENTER}	533	het handje
5	16:23:35	12	le{SPACE}rebond{ENTER}	0	{ENTER}	935	de terugstoot
5	16:23:35	13	le{SPACE}chenil{ENTER}	0	{ENTER}	4359	de kennel
5	16:23:35	14	la{SPACE}reliure{ENTER}	0	{ENTER}	6052	de boekband
5	16:23:35	15	le{SPACE}recel{ENTER}	0	{ENTER}	7248	de heling
5	16:23:35	16	le{SPACE}remous{ENTER}	0	{ENTER}	4729	de zuiging
5	16:23:35	17	le{SPACE}geni{SHIFT}evre{ENTER}	0	la{SPACE}j{SHIFT}Enevre{ENTER}	11602	de jeneverbes
5	16:23:35	18	le{SPACE}sevrage{ENTER}	0	{ENTER}	732	het onttrekken
5	16:23:35	19	la{SPACE}semelle{ENTER}	0	la{SPACE}sm{SHIFT}Elle{ENTER}	11309	de schoenzool
5	16:23:35	20	la{SPACE}secousse{ENTER}	0	la{SPACE}roucke{ENTER}	6004	de ruk
5	16:23:35	21	le{SPACE}faisan{ENTER}	0	le{SPACE}fazant{ENTER}	2563	de fazant
5	16:23:35	22	la{SPACE}belette{ENTER}	0	le{SPACE}ballet{ENTER}	4321	de wezel
5	16:23:35	23	le{SPACE}meneau{ENTER}	0	la{SPACE}m{SHIFT}Enu{ENTER}	8533	de paal
5	16:23:35	24	le{SPACE}renard{ENTER}	0	{ENTER}	417	de vos
50	15:12:38	1	la{SPACE}bedaine{ENTER}	1	la{SPACE}bedaine{ENTER}	17363	de bierbuik
50	15:12:38	2	la{SPACE}peluche{ENTER}	1	la{SPACE}peluche{ENTER}	2178	het pluisje
50	15:12:38	3	le{SPACE}recul{ENTER}	1	le{SPACE}recul{ENTER}	6353	de teruggang
50	15:12:38	4	la{SPACE}pelouse{ENTER}	0	le{SPACE}pelouse{ENTER}	3265	het gazon
50	15:12:38	5	le{SPACE}fenouil{ENTER}	0	la{SPACE}f{SHIFT}Enouil{ENTER}	7448	de venkel
50	15:12:38	6	la{SPACE}levrette{ENTER}	1	la{SPACE}levrette{ENTER}	5042	de windhond
50	15:12:38	7	le{SPACE}reflet{ENTER}	0	la{SPACE}reflet{ENTER}	10941	de reflex
50	15:12:38	8	le{SPACE}requin{ENTER}	1	le{SPACE}requin{ENTER}	3504	de haai
50	15:12:38	9	la{SPACE}semoule{ENTER}	1	la{SPACE}semoule{ENTER}	14359	de griesmeel
50	15:12:38	10	la{SPACE}chenille{ENTER}	1	la{SPACE}chenille{ENTER}	20472	de rups
50	15:12:38	11	la{SPACE}menotte{ENTER}	1	la{SPACE}menotte{ENTER}	3373	het handje
50	15:12:38	12	le{SPACE}rebond{ENTER}	1	le{SPACE}rebond{ENTER}	5659	de terugstoot
50	15:12:38	13	le{SPACE}chenil{ENTER}	0	la{SPACE}chenille{ENTER}	2108	de kennel
50	15:12:38	14	la{SPACE}reliure{ENTER}	0	le{SPACE}rebond{ENTER}	37043	de boekband
50	15:12:38	15	le{SPACE}recel{ENTER}	0	le{SPACE}recul{ENTER}	4388	de heling
50	15:12:38	16	le{SPACE}remous{ENTER}	0	la{SPACE}remous{ENTER}	1971	de zuiging
50	15:12:38	17	le{SPACE}geni{SHIFT}evre{ENTER}	0	la{SPACE}geni{SHIFT}Evre{ENTER}	5532	de jeneverbes
50	15:12:38	18	le{SPACE}sevrage{ENTER}	0	la{SPACE}sevrage{ENTER}	3887	het onttrekken
50	15:12:38	19	la{SPACE}semelle{ENTER}	0	la{SPACE}semille{ENTER}	32656	de schoenzool
50	15:12:38	20	la{SPACE}secousse{ENTER}	0	le{SPACE}sevr{ENTER}	24354	de ruk
50	15:12:38	21	le{SPACE}faisan{ENTER}	1	le{SPACE}faisan{ENTER}	5839	de fazant
50	15:12:38	22	la{SPACE}belette{ENTER}	0	le{SPACE}benotte{ENTER}	15126	de wezel
50	15:12:38	23	le{SPACE}meneau{ENTER}	0	la{SPACE}mousse{ENTER}	10957	de paal
50	15:12:38	24	le{SPACE}renard{ENTER}	1	le{SPACE}renard{ENTER}	1954	de vos
51	11:17:53	1	la{SPACE}bedaine{ENTER}	1	la{SPACE}bedaine{ENTER}	7978	de bierbuik
51	11:17:53	2	la{SPACE}peluche{ENTER}	0	la{SPACE}pluisse{ENTER}	12381	het pluisje
51	11:17:53	3	le{SPACE}recul{ENTER}	0	le{SPACE}sebonne{ENTER}	13633	de teruggang
51	11:17:53	4	la{SPACE}pelouse{ENTER}	0	la{SPACE}puison{ENTER}	14463	het gazon
51	11:17:53	5	le{SPACE}fenouil{ENTER}	0	la{SPACE}foulant{ENTER}	32006	de venkel
51	11:17:53	6	la{SPACE}levrette{ENTER}	0	la{SPACE}semelle{ENTER}	7428	de windhond
51	11:17:53	7	le{SPACE}reflet{ENTER}	1	le{SPACE}reflet{ENTER}	3731	de reflex
51	11:17:53	8	le{SPACE}requin{ENTER}	1	le{SPACE}requin{ENTER}	5729	de haai
51	11:17:53	9	la{SPACE}semoule{ENTER}	0	la{SPACE}semelle{ENTER}	25805	de griesmeel
51	11:17:53	10	la{SPACE}chenille{ENTER}	0	la{SPACE}secouse{ENTER}	43667	de rups
51	11:17:53	11	la{SPACE}menotte{ENTER}	0	la{SPACE}meneau{ENTER}	26377	het handje
51	11:17:53	12	le{SPACE}rebond{ENTER}	1	le{SPACE}rebond{ENTER}	2470	de terugstoot
51	11:17:53	13	le{SPACE}chenil{ENTER}	0	la{SPACE}chenelle{ENTER}	11188	de kennel
51	11:17:53	14	la{SPACE}reliure{ENTER}	0	la{SPACE}letture{ENTER}	8687	de boekband
51	11:17:53	15	le{SPACE}recel{ENTER}	1	le{SPACE}recel{ENTER}	4578	de heling
51	11:17:53	16	le{SPACE}remous{ENTER}	1	le{SPACE}remous{ENTER}	17710	de zuiging
51	11:17:53	17	le{SPACE}geni{SHIFT}evre{ENTER}	0	la{SPACE}genevi{SHIFT}Ere{ENTER}	16378	de jeneverbes
51	11:17:53	18	le{SPACE}sevrage{ENTER}	0	la{SPACE}semelle{ENTER}	5474	het onttrekken
51	11:17:53	19	la{SPACE}semelle{ENTER}	0	le{SPACE}semelle{ENTER}	28191	de schoenzool
51	11:17:53	20	la{SPACE}secousse{ENTER}	0	la{SPACE}letture{ENTER}	18794	de ruk
51	11:17:53	21	le{SPACE}faisan{ENTER}	0	le{SPACE}fassant{ENTER}	5707	de fazant
51	11:17:53	22	la{SPACE}belette{ENTER}	0	le{SPACE}recuise{ENTER}	33096	de wezel
51	11:17:53	23	le{SPACE}meneau{ENTER}	1	le{SPACE}meneau{ENTER}	4002	de paal
51	11:17:53	24	le{SPACE}renard{ENTER}	0	le{SPACE}recaine{ENTER}	8357	de vos
6	11:25:56	1	la{SPACE}bedaine{ENTER}	0	le{SPACE}bedaine{ENTER}	8781	de bierbuik
6	11:25:56	2	la{SPACE}peluche{ENTER}	1	la{SPACE}peluche{ENTER}	4181	het pluisje
6	11:25:56	3	le{SPACE}recul{ENTER}	1	le{SPACE}recul{ENTER}	5510	de teruggang
6	11:25:56	4	la{SPACE}pelouse{ENTER}	0	le{SPACE}pen{.}{.}{.}{.}{ENTER}	23179	het gazon
6	11:25:56	5	le{SPACE}fenouil{ENTER}	0	la{SPACE}fenuile{ENTER}	5847	de venkel
6	11:25:56	6	la{SPACE}levrette{ENTER}	0	le{SPACE}levrette{ENTER}	8446	de windhond
6	11:25:56	7	le{SPACE}reflet{ENTER}	1	le{SPACE}reflet{ENTER}	5509	de reflex
6	11:25:56	8	le{SPACE}requin{ENTER}	1	le{SPACE}requin{ENTER}	2708	de haai
6	11:25:56	9	la{SPACE}semoule{ENTER}	0	la{SPACE}semoulle{ENTER}	5725	de griesmeel
6	11:25:56	10	la{SPACE}chenille{ENTER}	1	la{SPACE}chenille{ENTER}	7816	de rups
6	11:25:56	11	la{SPACE}menotte{ENTER}	0	l{LEFTARROW}a{SPACE}menotte{ENTER}	14574	het handje
6	11:25:56	12	le{SPACE}rebond{ENTER}	1	le{SPACE}rebond{ENTER}	2829	de terugstoot
6	11:25:56	13	le{SPACE}chenil{ENTER}	1	le{SPACE}chenil{ENTER}	3071	de kennel
6	11:25:56	14	la{SPACE}reliure{ENTER}	0	la{SPACE}recune{SHIFT}{?}{ENTER}	14830	de boekband
6	11:25:56	15	le{SPACE}recel{ENTER}	1	le{SPACE}recel{ENTER}	6319	de heling
6	11:25:56	16	le{SPACE}remous{ENTER}	0	la{SPACE}semousse{ENTER}	8967	de zuiging
6	11:25:56	17	le{SPACE}geni{SHIFT}evre{ENTER}	0	le{SPACE}gen{SHIFT}Evre{ENTER}	5669	de jeneverbes
6	11:25:56	18	le{SPACE}sevrage{ENTER}	0	l{LEFTARROW}e{SPACE}sevrage{ENTER}	16279	het onttrekken
6	11:25:56	19	la{SPACE}semelle{ENTER}	0	la{SPACE}s{LEFTARROW}emelle{ENTER}	9413	de schoenzool
6	11:25:56	20	la{SPACE}secousse{ENTER}	0	la{SPACE}scuse{SHIFT}{ENTER}	13352	de ruk
6	11:25:56	21	le{SPACE}faisan{ENTER}	0	le{SPACE}faisant{ENTER}	9137	de fazant
6	11:25:56	22	la{SPACE}belette{ENTER}	1	la{SPACE}belette{ENTER}	5826	de wezel
6	11:25:56	23	le{SPACE}meneau{ENTER}	1	le{SPACE}meneau{ENTER}	2538	de paal
6	11:25:56	24	le{SPACE}renard{ENTER}	1	le{SPACE}renard{ENTER}	2236	de vos
7	10:00:05	1	la{SPACE}bedaine{ENTER}	0	{SHIFT}{?}{ENTER}	8488	de bierbuik
7	10:00:05	2	la{SPACE}peluche{ENTER}	0	la{SPACE}pl{SHIFT}uche{ENTER}	14422	het pluisje
7	10:00:05	3	le{SPACE}recul{ENTER}	1	le{SPACE}recul{ENTER}	19280	de teruggang
7	10:00:05	4	la{SPACE}pelouse{ENTER}	0	la{SPACE}paloze{ENTER}	12631	het gazon
7	10:00:05	5	le{SPACE}fenouil{ENTER}	0	la{SPACE}fouille{ENTER}	10571	de venkel
7	10:00:05	6	la{SPACE}levrette{ENTER}	1	la{SPACE}levrette{ENTER}	13140	de windhond
7	10:00:05	7	le{SPACE}reflet{ENTER}	0	le{SPACE}reflex{ENTER}	7094	de reflex
7	10:00:05	8	le{SPACE}requin{ENTER}	0	{SHIFT}{?}{ENTER}	4429	de haai
7	10:00:05	9	la{SPACE}semoule{ENTER}	0	{SHIFT}{?}{ENTER}	11852	de griesmeel
7	10:00:05	10	la{SPACE}chenille{ENTER}	0	la{SPACE}chenie{ENTER}	12419	de rups
7	10:00:05	11	la{SPACE}menotte{ENTER}	0	le{SPACE}menou{ENTER}	11231	het handje
7	10:00:05	12	le{SPACE}rebond{ENTER}	0	{SHIFT}{?}{ENTER}	5883	de terugstoot
7	10:00:05	13	le{SPACE}chenil{ENTER}	0	le{SPACE}chennel{ENTER}	6762	de kennel
7	10:00:05	14	la{SPACE}reliure{ENTER}	0	{SHIFT}{?}{ENTER}	4289	de boekband
7	10:00:05	15	le{SPACE}recel{ENTER}	0	{SHIFT}{?}{ENTER}	4081	de heling
7	10:00:05	16	le{SPACE}remous{ENTER}	0	{SHIFT}{?}{ENTER}	3932	de zuiging
7	10:00:05	17	le{SPACE}geni{SHIFT}evre{ENTER}	0	le{SPACE}gen{SHIFT}Evre{ENTER}	8942	de jeneverbes
7	10:00:05	18	le{SPACE}sevrage{ENTER}	0	le{SPACE}savrage{ENTER}	16557	het onttrekken
7	10:00:05	19	la{SPACE}semelle{ENTER}	0	la{SPACE}semouille{ENTER}	13876	de schoenzool
7	10:00:05	20	la{SPACE}secousse{ENTER}	0	{SHIFT}{?}{ENTER}	3076	de ruk
7	10:00:05	21	le{SPACE}faisan{ENTER}	0	le{SPACE}fazant{ENTER}	3653	de fazant
7	10:00:05	22	la{SPACE}belette{ENTER}	0	le{SPACE}boullet{ENTER}	17523	de wezel
7	10:00:05	23	le{SPACE}meneau{ENTER}	0	{SHIFT}{?}{ENTER}	2663	de paal
7	10:00:05	24	le{SPACE}renard{ENTER}	0	le{SPACE}reinard{ENTER}	3315	de vos
8	13:23:49	1	la{SPACE}bedaine{ENTER}	0	le{SPACE}bedaine{ENTER}	4829	de bierbuik
8	13:23:49	2	la{SPACE}peluche{ENTER}	0	la{SPACE}pelouse{ENTER}	4759	het pluisje
8	13:23:49	3	le{SPACE}recul{ENTER}	0	le{SPACE}recel{ENTER}	7756	de teruggang
8	13:23:49	4	la{SPACE}pelouse{ENTER}	0	le{SPACE}palouse{ENTER}	7815	het gazon
8	13:23:49	5	le{SPACE}fenouil{ENTER}	0	le{SPACE}fenile{ENTER}	5308	de venkel
8	13:23:49	6	la{SPACE}levrette{ENTER}	0	le{SPACE}levret{ENTER}	4487	de windhond
8	13:23:49	7	le{SPACE}reflet{ENTER}	0	le{SPACE}reflej{ENTER}	4407	de reflex
8	13:23:49	8	le{SPACE}requin{ENTER}	0	le{SPACE}renile{ENTER}	6144	de haai
8	13:23:49	9	la{SPACE}semoule{ENTER}	0	{SPACE}la{SPACE}semouse{ENTER}	5054	de griesmeel
8	13:23:49	10	la{SPACE}chenille{ENTER}	0	le{SPACE}rebourd{ENTER}	7641	de rups
8	13:23:49	11	la{SPACE}menotte{ENTER}	0	le{SPACE}manette{ENTER}	3582	het handje
8	13:23:49	12	le{SPACE}rebond{ENTER}	1	le{SPACE}rebond{ENTER}	1980	de terugstoot
8	13:23:49	13	le{SPACE}chenil{ENTER}	0	le{SPACE}chenille{ENTER}	5307	de kennel
8	13:23:49	14	la{SPACE}reliure{ENTER}	1	la{SPACE}reliure{ENTER}	4144	de boekband
8	13:23:49	15	le{SPACE}recel{ENTER}	0	le{SPACE}rebond{ENTER}	4677	de heling
8	13:23:49	16	le{SPACE}remous{ENTER}	0	le{SPACE}recal{ENTER}	4900	de zuiging
8	13:23:49	17	le{SPACE}geni{SHIFT}evre{ENTER}	0	la{SPACE}geni{SHIFT}Evre{ENTER}	4137	de jeneverbes
8	13:23:49	18	le{SPACE}sevrage{ENTER}	0	le{SPACE}sevage{ENTER}	6752	het onttrekken
8	13:23:49	19	la{SPACE}semelle{ENTER}	0	la{SPACE}semoulle{ENTER}	3622	de schoenzool
8	13:23:49	20	la{SPACE}secousse{ENTER}	0	le{SPACE}rebond{ENTER}	2112	de ruk
8	13:23:49	21	le{SPACE}faisan{ENTER}	0	le{SPACE}faisant{ENTER}	3353	de fazant
8	13:23:49	22	la{SPACE}belette{ENTER}	0	la{SPACE}bellete{ENTER}	3859	de wezel
8	13:23:49	23	le{SPACE}meneau{ENTER}	0	le{SPACE}menou{ENTER}	2491	de paal
8	13:23:49	24	le{SPACE}renard{ENTER}	1	le{SPACE}renard{ENTER}	2068	de vos
9	11:19:27	1	la{SPACE}bedaine{ENTER}	0	l{'}{SPACE}abande{ENTER}	12370	de bierbuik
9	11:19:27	2	la{SPACE}peluche{ENTER}	0	la{SPACE}pluche{ENTER}	7014	het pluisje
9	11:19:27	3	le{SPACE}recul{ENTER}	0	le{SPACE}recule{ENTER}	8571	de teruggang
9	11:19:27	4	la{SPACE}pelouse{ENTER}	0	la{SPACE}p{LEFTARROW}alouse{ENTER}	15407	het gazon
9	11:19:27	5	le{SPACE}fenouil{ENTER}	0	le{SPACE}fenille{ENTER}	17359	de venkel
9	11:19:27	6	la{SPACE}levrette{ENTER}	0	le{SPACE}chenielle{ENTER}	19799	de windhond
9	11:19:27	7	le{SPACE}reflet{ENTER}	0	le{SPACE}refleche{ENTER}	18524	de reflex
9	11:19:27	8	le{SPACE}requin{ENTER}	0	le{SPACE}cenou{ENTER}	17593	de haai
9	11:19:27	9	la{SPACE}semoule{ENTER}	0	la{SPACE}chemouille{ENTER}	20425	de griesmeel
9	11:19:27	10	la{SPACE}chenille{ENTER}	0	le{SPACE}refou{ENTER}	27562	de rups
9	11:19:27	11	la{SPACE}menotte{ENTER}	0	la{SPACE}manou{ENTER}	8721	het handje
9	11:19:27	12	le{SPACE}rebond{ENTER}	0	le{SPACE}recule{ENTER}	6938	de terugstoot
9	11:19:27	13	le{SPACE}chenil{ENTER}	0	le{SPACE}channel{ENTER}	36265	de kennel
9	11:19:27	14	la{SPACE}reliure{ENTER}	0	le{SPACE}{SPACE}rouleu{ENTER}	9393	de boekband
9	11:19:27	15	le{SPACE}recel{ENTER}	0	le{SPACE}renoir{ENTER}	32849	de heling
9	11:19:27	16	le{SPACE}remous{ENTER}	0	le{SPACE}remou{ENTER}	10067	de zuiging
9	11:19:27	17	le{SPACE}geni{SHIFT}evre{ENTER}	0	le{SPACE}jenevre{ENTER}	5371	de jeneverbes
9	11:19:27	18	le{SPACE}sevrage{ENTER}	0	le{SPACE}choure{ENTER}	25219	het onttrekken
9	11:19:27	19	la{SPACE}semelle{ENTER}	0	la{SPACE}chenille{ENTER}	10134	de schoenzool
9	11:19:27	20	la{SPACE}secousse{ENTER}	0	le{SPACE}ricule{ENTER}	8808	de ruk
9	11:19:27	21	le{SPACE}faisan{ENTER}	0	le{SPACE}fazante{ENTER}	8019	de fazant
9	11:19:27	22	la{SPACE}belette{ENTER}	0	le{SPACE}chivre{ENTER}	20904	de wezel
9	11:19:27	23	le{SPACE}meneau{ENTER}	0	le{SPACE}canou{ENTER}	2778	de paal
9	11:19:27	24	le{SPACE}renard{ENTER}	0	{SPACE}le{SPACE}renart{ENTER}	7117	de vos